Timestamp,Gyro_X,Gyro_Y,Gyro_Z,Accel_X,Accel_Y,Accel_Z,UTC_Time
4115.0283203125,-197.7939453125,4.477356910705566,1551.5550537109375,7.930000305175781,-1010.281982421875,22.082000732421875,2023-04-20T08:29:38.130664
4115.03564453125,-22.7939453125,-65.52264404296875,1481.5550537109375,8.234999656677246,-1005.9509887695312,22.814001083374023,2023-04-20T08:29:38.139935
4115.04443359375,117.2060546875,-100.52264404296875,1306.5550537109375,5.184999942779541,-1006.56103515625,24.52199935913086,2023-04-20T08:29:38.148174
4115.052734375,152.2060546875,-100.52264404296875,1166.5550537109375,5.307000160217285,-1009.8550415039062,24.277999877929688,2023-04-20T08:29:38.155438
4115.06103515625,362.2060546875,-135.52264404296875,1131.5550537109375,5.184999942779541,-1013.4540405273438,24.52199935913086,2023-04-20T08:29:38.164776
4115.06884765625,572.2060546875,-100.52264404296875,1271.5550537109375,5.734000205993652,-1011.989990234375,24.58300018310547,2023-04-20T08:29:38.173074
4115.07666015625,677.2060546875,4.477356910705566,1411.5550537109375,5.184999942779541,-1009.3060302734375,24.948999404907227,2023-04-20T08:29:38.180361
4115.0849609375,572.2060546875,-30.52264404296875,1481.5550537109375,5.184999942779541,-1004.85302734375,27.388999938964844,2023-04-20T08:29:38.190822
4115.0927734375,362.2060546875,144.47735595703125,1341.5550537109375,6.2220001220703125,-1005.8290405273438,27.328001022338867,2023-04-20T08:29:38.201684
4115.10107421875,187.2060546875,179.47735595703125,1341.5550537109375,6.5269999504089355,-1006.8660278320312,25.742000579833984,2023-04-20T08:29:38.203689
4115.10888671875,82.2060546875,284.47735595703125,1201.5550537109375,4.269999980926514,-1009.6110229492188,27.57200050354004,2023-04-20T08:29:38.214993
4115.11669921875,117.2060546875,284.47735595703125,1166.5550537109375,4.513999938964844,-1010.5870361328125,28.121000289916992,2023-04-20T08:29:38.219994
4115.125,152.2060546875,214.47735595703125,991.5551147460938,3.9040000438690186,-1013.27099609375,25.92500114440918,2023-04-20T08:29:38.235249
4115.1328125,432.2060546875,179.47735595703125,781.5551147460938,4.513999938964844,-1013.3930053710938,28.243000030517578,2023-04-20T08:29:38.236473
4115.140625,502.2060546875,144.47735595703125,816.5551147460938,4.940999984741211,-1011.7460327148438,27.388999938964844,2023-04-20T08:29:38.243473
4115.14892578125,712.2060546875,109.47735595703125,851.5551147460938,5.063000202178955,-1010.1600341796875,28.243000030517578,2023-04-20T08:29:38.251761
4115.15673828125,747.2060546875,214.47735595703125,1026.5550537109375,4.209000110626221,-1008.0859985351562,28.60900115966797,2023-04-20T08:29:38.263656
4115.1650390625,642.2060546875,284.47735595703125,1131.5550537109375,4.575000286102295,-1007.5369873046875,29.280000686645508,2023-04-20T08:29:38.268660
4115.1728515625,537.2060546875,319.47735595703125,1271.5550537109375,3.9040000438690186,-1006.0120239257812,29.158000946044922,2023-04-20T08:29:38.277194
4115.18115234375,222.2060546875,424.47735595703125,1481.5550537109375,3.6600000858306885,-1007.1710205078125,30.072999954223633,2023-04-20T08:29:38.285724
4115.18896484375,292.2060546875,389.47735595703125,1516.5550537109375,3.4160001277923584,-1008.5740356445312,30.683000564575195,2023-04-20T08:29:38.295943
4115.19677734375,117.2060546875,389.47735595703125,1621.5550537109375,4.026000022888184,-1008.0859985351562,31.048999786376953,2023-04-20T08:29:38.302453
4115.20458984375,222.2060546875,459.47735595703125,1726.5550537109375,2.378999948501587,-1007.6589965820312,29.402000427246094,2023-04-20T08:29:38.317221
4115.212890625,222.2060546875,354.47735595703125,1761.5550537109375,2.805999994277954,-1007.4760131835938,30.316999435424805,2023-04-20T08:29:38.320431
4115.220703125,152.2060546875,319.47735595703125,1691.5550537109375,1.7080000638961792,-1007.1099853515625,30.5,2023-04-20T08:29:38.327600
4115.22900390625,187.2060546875,354.47735595703125,1726.5550537109375,1.281000018119812,-1005.8290405273438,29.951000213623047,2023-04-20T08:29:38.332845
4115.23681640625,-22.7939453125,459.47735595703125,1726.5550537109375,1.8300000429153442,-1006.6220092773438,29.889999389648438,2023-04-20T08:29:38.340366
4115.24462890625,-232.7939453125,459.47735595703125,1656.5550537109375,0.4880000054836273,-1006.56103515625,29.280000686645508,2023-04-20T08:29:38.348880
4115.2529296875,-302.7939453125,529.4773559570312,1691.5550537109375,-0.12200000137090683,-1006.072998046875,29.463001251220703,2023-04-20T08:29:38.357095
4115.2607421875,-267.7939453125,564.4773559570312,1481.5550537109375,0.3659999966621399,-1007.1099853515625,28.426000595092773,2023-04-20T08:29:38.366954
4115.26904296875,-337.7939453125,599.4773559570312,1271.5550537109375,0.6100000143051147,-1006.988037109375,27.632999420166016,2023-04-20T08:29:38.371000
4115.27685546875,-372.7939453125,634.4773559570312,1201.5550537109375,1.2200000286102295,-1007.2930297851562,29.82900047302246,2023-04-20T08:29:38.380409
4115.28466796875,-302.7939453125,634.4773559570312,921.5551147460938,2.378999948501587,-1005.9509887695312,29.097000122070312,2023-04-20T08:29:38.387807
4115.29296875,-372.7939453125,739.4773559570312,641.5551147460938,1.5859999656677246,-1007.35400390625,27.755001068115234,2023-04-20T08:29:38.395038
4115.30078125,-337.7939453125,669.4773559570312,501.5550842285156,0.0,-1008.8179931640625,27.328001022338867,2023-04-20T08:29:38.407024
4115.30908203125,-302.7939453125,774.4773559570312,361.5550842285156,1.037000060081482,-1010.1600341796875,26.718000411987305,2023-04-20T08:29:38.413121
4115.31689453125,-232.7939453125,914.4773559570312,326.5550842285156,0.061000000685453415,-1009.7330322265625,27.694000244140625,2023-04-20T08:29:38.419339
4115.32470703125,-127.7939453125,949.4773559570312,256.5550842285156,0.061000000685453415,-1009.8550415039062,27.694000244140625,2023-04-20T08:29:38.427372
4115.3330078125,-162.7939453125,949.4773559570312,291.5550842285156,2.134999990463257,-1009.5499877929688,25.80299949645996,2023-04-20T08:29:38.440224
4115.3408203125,-57.7939453125,914.4773559570312,291.5550842285156,0.4880000054836273,-1009.0010375976562,26.59600067138672,2023-04-20T08:29:38.443477
4115.3486328125,-92.7939453125,984.4773559570312,326.5550842285156,0.6710000038146973,-1009.7940063476562,26.779001235961914,2023-04-20T08:29:38.451684
4115.35693359375,47.2060546875,739.4773559570312,431.5550842285156,0.7319999933242798,-1010.77001953125,26.656999588012695,2023-04-20T08:29:38.458691
4115.36474609375,117.2060546875,739.4773559570312,501.5550842285156,1.8300000429153442,-1010.9530029296875,29.2189998626709,2023-04-20T08:29:38.471694
4115.373046875,292.2060546875,599.4773559570312,641.5551147460938,3.4160001277923584,-1010.1600341796875,27.267000198364258,2023-04-20T08:29:38.477694
4115.380859375,362.2060546875,529.4773559570312,781.5551147460938,3.2940001487731934,-1008.2080078125,29.036001205444336,2023-04-20T08:29:38.483863
4115.388671875,257.2060546875,494.47735595703125,816.5551147460938,3.049999952316284,-1009.4280395507812,29.2189998626709,2023-04-20T08:29:38.491896
4115.39697265625,222.2060546875,529.4773559570312,1061.5550537109375,2.745000123977661,-1008.3300170898438,29.280000686645508,2023-04-20T08:29:38.502586
4115.40478515625,117.2060546875,494.47735595703125,1341.5550537109375,2.196000099182129,-1009.916015625,28.48699951171875,2023-04-20T08:29:38.507586
4115.41259765625,47.2060546875,494.47735595703125,1411.5550537109375,0.4880000054836273,-1007.1099853515625,29.036001205444336,2023-04-20T08:29:38.515587
4115.4208984375,-22.7939453125,459.47735595703125,1586.5550537109375,0.5490000247955322,-1008.5740356445312,29.463001251220703,2023-04-20T08:29:38.522689
4115.4287109375,-162.7939453125,459.47735595703125,1691.5550537109375,-0.5490000247955322,-1008.4520263671875,30.378000259399414,2023-04-20T08:29:38.536340
4115.43701171875,-57.7939453125,424.47735595703125,1691.5550537109375,-1.4639999866485596,-1009.06201171875,29.097000122070312,2023-04-20T08:29:38.539851
4115.44482421875,-127.7939453125,284.47735595703125,1656.5550537109375,-0.3050000071525574,-1008.635009765625,29.82900047302246,2023-04-20T08:29:38.549567
4115.45263671875,-57.7939453125,284.47735595703125,1691.5550537109375,0.4270000159740448,-1008.5130004882812,31.17099952697754,2023-04-20T08:29:38.556051
4115.4609375,-162.7939453125,249.47735595703125,1516.5550537109375,0.7319999933242798,-1006.8049926757812,29.280000686645508,2023-04-20T08:29:38.565071
4115.46875,-232.7939453125,179.47735595703125,1376.5550537109375,-0.7929999828338623,-1006.3779907226562,30.19499969482422,2023-04-20T08:29:38.572314
4115.47705078125,-407.7939453125,249.47735595703125,1376.5550537109375,-0.7319999933242798,-1005.7680053710938,32.20800018310547,2023-04-20T08:29:38.582884
4115.48486328125,-617.7939453125,284.47735595703125,1306.5550537109375,-1.2200000286102295,-1006.1950073242188,30.256000518798828,2023-04-20T08:29:38.591157
4115.49267578125,-687.7939453125,249.47735595703125,1271.5550537109375,-2.074000120162964,-1004.364990234375,30.134000778198242,2023-04-20T08:29:38.596277
4115.5009765625,-862.7939453125,249.47735595703125,1306.5550537109375,-2.074000120162964,-1006.7440185546875,31.17099952697754,2023-04-20T08:29:38.604549
4115.5087890625,-1072.7939453125,319.47735595703125,1376.5550537109375,-2.805999994277954,-1005.4020385742188,29.402000427246094,2023-04-20T08:29:38.616702
4115.5166015625,-1142.7939453125,389.47735595703125,1411.5550537109375,-3.2940001487731934,-1006.6829833984375,29.280000686645508,2023-04-20T08:29:38.619793
4115.52490234375,-1212.7939453125,424.47735595703125,1446.5550537109375,-4.269999980926514,-1005.0360107421875,28.48699951171875,2023-04-20T08:29:38.629509
4115.53271484375,-1282.7939453125,354.47735595703125,1481.5550537109375,-3.4769999980926514,-1003.7550048828125,26.53499984741211,2023-04-20T08:29:38.636534
4115.541015625,-1387.7939453125,459.47735595703125,1411.5550537109375,-5.428999900817871,-1003.93798828125,26.229999542236328,2023-04-20T08:29:38.643009
4115.548828125,-1352.7939453125,494.47735595703125,1411.5550537109375,-5.551000118255615,-1006.0120239257812,26.59600067138672,2023-04-20T08:29:38.652507
4115.556640625,-1457.7939453125,599.4773559570312,1376.5550537109375,-6.2829999923706055,-1008.1470336914062,24.1560001373291,2023-04-20T08:29:38.660925
4115.56494140625,-1317.7939453125,669.4773559570312,1236.5550537109375,-6.832000255584717,-1007.9639892578125,25.315000534057617,2023-04-20T08:29:38.669368
4115.57275390625,-1247.7939453125,704.4773559570312,1236.5550537109375,-7.320000171661377,-1009.1229858398438,24.461000442504883,2023-04-20T08:29:38.680710
4115.5810546875,-1107.7939453125,844.4773559570312,1061.5550537109375,-7.747000217437744,-1007.7200317382812,23.18000030517578,2023-04-20T08:29:38.683744
4115.5888671875,-967.7939453125,879.4773559570312,991.5551147460938,-8.418000221252441,-1007.9639892578125,23.972999572753906,2023-04-20T08:29:38.694404
4115.5966796875,-792.7939453125,844.4773559570312,886.5551147460938,-8.11299991607666,-1008.9400024414062,24.704999923706055,2023-04-20T08:29:38.699958
4115.60498046875,-477.7939453125,809.4773559570312,746.5551147460938,-7.564000129699707,-1010.4650268554688,24.52199935913086,2023-04-20T08:29:38.714880
4115.61279296875,-372.7939453125,809.4773559570312,606.5551147460938,-10.61400032043457,-1010.8920288085938,24.766000747680664,2023-04-20T08:29:38.716913
4115.62109375,12.206053733825684,739.4773559570312,431.5550842285156,-7.86899995803833,-1009.0010375976562,25.55900001525879,2023-04-20T08:29:38.725063
4115.62890625,397.2060546875,704.4773559570312,361.5550842285156,-8.784000396728516,-1001.864013671875,26.779001235961914,2023-04-20T08:29:38.733137
4115.63671875,432.2060546875,634.4773559570312,256.5550842285156,-9.454999923706055,-1000.4000244140625,27.267000198364258,2023-04-20T08:29:38.739703
4115.64501953125,432.2060546875,529.4773559570312,151.5550994873047,-11.28499984741211,-1001.5590209960938,28.243000030517578,2023-04-20T08:29:38.747703
4115.65283203125,152.2060546875,459.47735595703125,-93.44490814208984,-11.895000457763672,-1007.4150390625,26.718000411987305,2023-04-20T08:29:38.756439
4115.6611328125,152.2060546875,459.47735595703125,-163.4449005126953,-9.15000057220459,-1009.489013671875,27.87700080871582,2023-04-20T08:29:38.764625
4115.6689453125,47.2060546875,354.47735595703125,-268.4449157714844,-8.234999656677246,-1007.2319946289062,28.1820011138916,2023-04-20T08:29:38.776067
4115.6767578125,-197.7939453125,319.47735595703125,-443.4449157714844,-5.9170002937316895,-1001.9860229492188,27.267000198364258,2023-04-20T08:29:38.779424
4115.68505859375,-302.7939453125,354.47735595703125,-583.4448852539062,-4.575000286102295,-1002.4130249023438,26.229999542236328,2023-04-20T08:29:38.787801
4115.69287109375,-862.7939453125,424.47735595703125,-1108.4449462890625,1.0980000495910645,-1004.2429809570312,27.023000717163086,2023-04-20T08:29:38.794974
4115.701171875,-967.7939453125,494.47735595703125,-1388.4449462890625,4.392000198364258,-1007.9030151367188,27.023000717163086,2023-04-20T08:29:38.806569
4115.708984375,-932.7939453125,634.4773559570312,-1913.4449462890625,6.710000038146973,-1009.6719970703125,25.92500114440918,2023-04-20T08:29:38.812648
4115.716796875,-722.7939453125,669.4773559570312,-2368.44482421875,5.734000205993652,-1007.5369873046875,27.51099967956543,2023-04-20T08:29:38.819514
4115.72509765625,-757.7939453125,774.4773559570312,-2473.44482421875,6.64900016784668,-1009.1229858398438,25.437000274658203,2023-04-20T08:29:38.827521
4115.73291015625,-757.7939453125,914.4773559570312,-2648.44482421875,6.099999904632568,-1010.708984375,26.474000930786133,2023-04-20T08:29:38.839201
4115.74072265625,-792.7939453125,1159.4774169921875,-2438.44482421875,4.209000110626221,-1011.9290161132812,25.375999450683594,2023-04-20T08:29:38.845330
4115.7490234375,-827.7939453125,1229.4774169921875,-2193.44482421875,3.3550000190734863,-1011.197021484375,24.766000747680664,2023-04-20T08:29:38.851435
4115.7568359375,-827.7939453125,1299.4774169921875,-1703.4449462890625,2.134999990463257,-1011.0140380859375,24.461000442504883,2023-04-20T08:29:38.859499
4115.7646484375,-967.7939453125,1404.4774169921875,-1003.4448852539062,2.745000123977661,-1009.3670043945312,22.996999740600586,2023-04-20T08:29:38.866873
4115.77294921875,-897.7939453125,1334.4774169921875,-758.4448852539062,1.5859999656677246,-1008.0859985351562,23.24100112915039,2023-04-20T08:29:38.875873
4115.78076171875,-687.7939453125,1264.4774169921875,-338.4449157714844,2.805999994277954,-1009.4280395507812,20.5570011138916,2023-04-20T08:29:38.883941
4115.78857421875,-547.7939453125,984.4773559570312,-58.444908142089844,3.3550000190734863,-1010.4650268554688,21.410999298095703,2023-04-20T08:29:38.891049
4115.796875,-302.7939453125,844.4773559570312,-23.444908142089844,3.7209999561309814,-1010.4039916992188,21.89900016784668,2023-04-20T08:29:38.903793
4115.8046875,82.2060546875,599.4773559570312,-58.444908142089844,3.5380001068115234,-1010.0989990234375,22.447999954223633,2023-04-20T08:29:38.909493
4115.81298828125,292.2060546875,494.47735595703125,-93.44490814208984,4.819000244140625,-1009.6719970703125,23.85099983215332,2023-04-20T08:29:38.916013
4115.82080078125,432.2060546875,354.47735595703125,-128.4449005126953,6.1610002517700195,-1007.4150390625,22.814001083374023,2023-04-20T08:29:38.924457
4115.82861328125,467.2060546875,354.47735595703125,-233.4449005126953,7.685999870300293,-1003.8160400390625,24.21700096130371,2023-04-20T08:29:38.935726
4115.8369140625,327.2060546875,564.4773559570312,-128.4449005126953,6.588000297546387,-1004.0599975585938,26.16900062561035,2023-04-20T08:29:38.953519
4115.8447265625,82.2060546875,739.4773559570312,-198.4449005126953,5.490000247955322,-1008.635009765625,24.399999618530273,2023-04-20T08:29:38.956584
4115.85302734375,117.2060546875,844.4773559570312,-198.4449005126953,3.5989999771118164,-1009.5499877929688,23.668001174926758,2023-04-20T08:29:38.957602
4115.86083984375,-22.7939453125,914.4773559570312,-303.4449157714844,5.9170002937316895,-1009.1229858398438,24.461000442504883,2023-04-20T08:29:38.964992
4115.86865234375,-162.7939453125,1124.4774169921875,-303.4449157714844,8.052000045776367,-1005.1580200195312,22.20400047302246,2023-04-20T08:29:38.970995
4115.876953125,-547.7939453125,1334.4774169921875,-548.4448852539062,8.479000091552734,-1002.291015625,21.715999603271484,2023-04-20T08:29:38.983211
4115.884765625,-897.7939453125,1404.4774169921875,-723.4448852539062,6.832000255584717,-1002.0469970703125,20.98400115966797,2023-04-20T08:29:38.991556
4115.892578125,-1142.7939453125,1579.4774169921875,-758.4448852539062,3.2940001487731934,-1006.3170166015625,20.618000030517578,2023-04-20T08:29:38.994732
4115.90087890625,-1177.7939453125,1509.4774169921875,-793.4448852539062,5.368000030517578,-1009.7940063476562,22.996999740600586,2023-04-20T08:29:39.003651
4115.90869140625,-1072.7939453125,1509.4774169921875,-723.4448852539062,3.9040000438690186,-1014.18603515625,22.56999969482422,2023-04-20T08:29:39.018625
4115.9169921875,-1002.7939453125,1509.4774169921875,-373.4449157714844,0.7319999933242798,-1012.2949829101562,20.98400115966797,2023-04-20T08:29:39.021665
4115.9248046875,-792.7939453125,1509.4774169921875,-93.44490814208984,0.9150000214576721,-1009.916015625,20.801000595092773,2023-04-20T08:29:39.031052
4115.9326171875,-932.7939453125,1299.4774169921875,326.5550842285156,0.7929999828338623,-997.7160034179688,21.288999557495117,2023-04-20T08:29:39.037052
4115.94091796875,-1457.7939453125,1264.4774169921875,466.5550842285156,0.12200000137090683,-996.3740234375,20.739999771118164,2023-04-20T08:29:39.043667
4115.94873046875,-1807.7939453125,1299.4774169921875,536.5551147460938,-3.9040000438690186,-999.1190185546875,19.703001022338867,2023-04-20T08:29:39.053842
4115.95654296875,-2192.7939453125,1229.4774169921875,886.5551147460938,-0.8540000319480896,-998.93603515625,20.739999771118164,2023-04-20T08:29:39.062306
4115.96484375,-2192.7939453125,1054.4774169921875,886.5551147460938,-3.3550000190734863,-1003.8160400390625,18.726999282836914,2023-04-20T08:29:39.070361
4115.97265625,-2262.7939453125,949.4773559570312,781.5551147460938,-4.392000198364258,-1008.4520263671875,21.410999298095703,2023-04-20T08:29:39.075668
4115.98046875,-2087.7939453125,669.4773559570312,536.5551147460938,-0.6710000038146973,-1016.9310302734375,20.130001068115234,2023-04-20T08:29:39.082666
4115.98876953125,-1702.7939453125,529.4773559570312,431.5550842285156,4.269999980926514,-1018.5170288085938,20.739999771118164,2023-04-20T08:29:39.092423
4115.99658203125,-1457.7939453125,424.47735595703125,221.5550994873047,4.086999893188477,-1018.0289916992188,20.374000549316406,2023-04-20T08:29:39.100423
4116.0048828125,-1072.7939453125,354.47735595703125,-93.44490814208984,6.953999996185303,-1014.4910278320312,21.288999557495117,2023-04-20T08:29:39.111004
4116.0126953125,-932.7939453125,424.47735595703125,-268.4449157714844,7.808000087738037,-1013.0270385742188,21.410999298095703,2023-04-20T08:29:39.117773
4116.02099609375,-792.7939453125,494.47735595703125,-478.4449157714844,10.980000495910645,-1013.2100219726562,20.374000549316406,2023-04-20T08:29:39.126151
4116.02880859375,-862.7939453125,704.4773559570312,-618.4448852539062,9.881999969482422,-1013.8809814453125,21.777000427246094,2023-04-20T08:29:39.132152
4116.037109375,-862.7939453125,914.4773559570312,-688.4448852539062,7.991000175476074,-1015.3450317382812,21.89900016784668,2023-04-20T08:29:39.139273
4116.044921875,-757.7939453125,914.4773559570312,-583.4448852539062,8.11299991607666,-1012.7830200195312,23.058000564575195,2023-04-20T08:29:39.147995
4116.052734375,-687.7939453125,809.4773559570312,-513.4448852539062,2.745000123977661,-1007.781005859375,23.24100112915039,2023-04-20T08:29:39.158751
4116.06103515625,-582.7939453125,669.4773559570312,-408.4449157714844,2.684000015258789,-1007.0490112304688,22.14299964904785,2023-04-20T08:29:39.164878
4116.06884765625,-722.7939453125,529.4773559570312,-303.4449157714844,4.269999980926514,-1009.6719970703125,23.790000915527344,2023-04-20T08:29:39.179450
4116.07666015625,-827.7939453125,389.47735595703125,-128.4449005126953,1.402999997138977,-1011.7460327148438,25.498001098632812,2023-04-20T08:29:39.183621
4116.0849609375,-827.7939453125,249.47735595703125,11.555092811584473,0.5490000247955322,-1012.2340087890625,25.19300079345703,2023-04-20T08:29:39.190541
4116.0927734375,-477.7939453125,-100.52264404296875,221.5550994873047,0.12200000137090683,-1009.8550415039062,25.375999450683594,2023-04-20T08:29:39.196571
4116.10107421875,-582.7939453125,-450.52264404296875,326.5550842285156,1.402999997138977,-1007.9639892578125,25.253999710083008,2023-04-20T08:29:39.205965
4116.10888671875,-652.7939453125,-520.5226440429688,326.5550842285156,1.037000060081482,-1007.4760131835938,25.80299949645996,2023-04-20T08:29:39.212964
4116.11669921875,-862.7939453125,-730.5226440429688,116.55509185791016,5.611999988555908,-1007.6589965820312,26.16900062561035,2023-04-20T08:29:39.221762
4116.125,-1212.7939453125,-730.5226440429688,-128.4449005126953,7.13700008392334,-1007.9639892578125,26.9010009765625,2023-04-20T08:29:39.230145
4116.1328125,-1317.7939453125,-765.5226440429688,-303.4449157714844,9.454999923706055,-1007.7200317382812,25.071001052856445,2023-04-20T08:29:39.239204
4116.140625,-1562.7939453125,-660.5226440429688,-478.4449157714844,11.651000022888184,-1008.5740356445312,23.972999572753906,2023-04-20T08:29:39.245204
4116.14892578125,-1842.7939453125,-625.5226440429688,-653.4448852539062,10.675000190734863,-1009.916015625,24.399999618530273,2023-04-20T08:29:39.252445
4116.15673828125,-1842.7939453125,-660.5226440429688,-653.4448852539062,9.63800048828125,-1010.4039916992188,25.80299949645996,2023-04-20T08:29:39.259445
4116.16455078125,-1982.7939453125,-730.5226440429688,-618.4448852539062,10.248000144958496,-1011.7460327148438,25.986000061035156,2023-04-20T08:29:39.270281
4116.1728515625,-1912.7939453125,-800.5226440429688,-513.4448852539062,9.760000228881836,-1011.3800048828125,24.21700096130371,2023-04-20T08:29:39.277282
4116.18115234375,-1982.7939453125,-730.5226440429688,-338.4449157714844,10.675000190734863,-1011.3800048828125,23.18000030517578,2023-04-20T08:29:39.285329
4116.18896484375,-2017.7939453125,-730.5226440429688,-93.44490814208984,10.675000190734863,-1012.2949829101562,23.60700035095215,2023-04-20T08:29:39.294043
4116.19677734375,-2122.7939453125,-695.5226440429688,46.555091857910156,10.003999710083008,-1014.7349853515625,21.5939998626709,2023-04-20T08:29:39.303583
4116.205078125,-1982.7939453125,-660.5226440429688,291.5550842285156,10.003999710083008,-1014.2470092773438,20.312999725341797,2023-04-20T08:29:39.308760
4116.212890625,-1912.7939453125,-380.52264404296875,571.5551147460938,10.736000061035156,-1011.2579956054688,21.472000122070312,2023-04-20T08:29:39.317289
4116.220703125,-1912.7939453125,-310.52264404296875,641.5551147460938,12.8100004196167,-1009.7940063476562,20.19099998474121,2023-04-20T08:29:39.323515
4116.22900390625,-1842.7939453125,-65.52264404296875,641.5551147460938,12.444000244140625,-1008.5740356445312,19.825000762939453,2023-04-20T08:29:39.335063
4116.23681640625,-1877.7939453125,214.47735595703125,536.5551147460938,15.494000434875488,-1010.9530029296875,17.9950008392334,2023-04-20T08:29:39.339221
4116.2451171875,-1842.7939453125,424.47735595703125,466.5550842285156,15.73799991607666,-1012.6000366210938,19.21500015258789,2023-04-20T08:29:39.348493
4116.2529296875,-1702.7939453125,774.4773559570312,606.5551147460938,17.873001098632812,-1011.9290161132812,17.56800079345703,2023-04-20T08:29:39.355857
4116.2607421875,-1667.7939453125,1159.4774169921875,711.5551147460938,16.347999572753906,-1011.0140380859375,16.89699935913086,2023-04-20T08:29:39.365054
4116.26904296875,-1562.7939453125,1369.4774169921875,746.5551147460938,15.860000610351562,-1010.8309936523438,16.836000442504883,2023-04-20T08:29:39.372533
4116.27685546875,-1492.7939453125,1719.4774169921875,781.5551147460938,14.579000473022461,-1010.5870361328125,15.677000045776367,2023-04-20T08:29:39.383084
4116.28466796875,-1387.7939453125,1859.4774169921875,851.5551147460938,15.067000389099121,-1010.9530029296875,16.409000396728516,2023-04-20T08:29:39.389566
4116.29296875,-1282.7939453125,2139.477294921875,816.5551147460938,12.07800006866455,-1011.3190307617188,15.25,2023-04-20T08:29:39.399191
4116.30078125,-1037.7939453125,2209.477294921875,746.5551147460938,10.430999755859375,-1010.4650268554688,13.359000205993652,2023-04-20T08:29:39.403712
4116.30859375,-1002.7939453125,2209.477294921875,641.5551147460938,7.014999866485596,-1009.9769897460938,14.456999778747559,2023-04-20T08:29:39.415372
4116.31689453125,-897.7939453125,2034.4774169921875,571.5551147460938,7.197999954223633,-1008.2080078125,13.237000465393066,2023-04-20T08:29:39.419749
4116.32470703125,-757.7939453125,1824.4774169921875,361.5550842285156,3.3550000190734863,-1006.2559814453125,11.345999717712402,2023-04-20T08:29:39.431132
4116.3330078125,-862.7939453125,1684.4774169921875,256.5550842285156,2.013000011444092,-1005.70703125,11.163000106811523,2023-04-20T08:29:39.436313
4116.3408203125,-897.7939453125,1334.4774169921875,11.555092811584473,0.3050000071525574,-1005.9509887695312,10.492000579833984,2023-04-20T08:29:39.444871
4116.3486328125,-1072.7939453125,914.4773559570312,-58.444908142089844,-0.7929999828338623,-1005.280029296875,10.492000579833984,2023-04-20T08:29:39.454872
4116.35693359375,-1107.7939453125,704.4773559570312,-163.4449005126953,0.5490000247955322,-1005.5239868164062,10.675000190734863,2023-04-20T08:29:39.464987
4116.365234375,-1247.7939453125,319.47735595703125,-338.4449157714844,2.500999927520752,-1007.842041015625,11.895000457763672,2023-04-20T08:29:39.479777
4116.373046875,-1352.7939453125,-65.52264404296875,-478.4449157714844,3.4160001277923584,-1009.1840209960938,11.28499984741211,2023-04-20T08:29:39.483859
4116.380859375,-1352.7939453125,-240.52264404296875,-583.4448852539062,5.063000202178955,-1010.0380249023438,11.163000106811523,2023-04-20T08:29:39.488724
4116.38916015625,-1317.7939453125,-555.5226440429688,-793.4448852539062,8.173999786376953,-1009.1840209960938,10.79699993133545,2023-04-20T08:29:39.496270
4116.39697265625,-1247.7939453125,-695.5226440429688,-758.4448852539062,7.991000175476074,-1009.2449951171875,12.444000244140625,2023-04-20T08:29:39.500477
4116.40478515625,-1247.7939453125,-870.5226440429688,-968.4448852539062,9.699000358581543,-1009.4280395507812,11.895000457763672,2023-04-20T08:29:39.510465
4116.4130859375,-1177.7939453125,-975.5226440429688,-1108.4449462890625,12.017000198364258,-1011.4410400390625,10.980000495910645,2023-04-20T08:29:39.516239
4116.4208984375,-1107.7939453125,-975.5226440429688,-1108.4449462890625,11.711999893188477,-1011.6240234375,10.369999885559082,2023-04-20T08:29:39.530431
4116.4287109375,-967.7939453125,-870.5226440429688,-968.4448852539062,15.616000175476074,-1013.759033203125,8.479000091552734,2023-04-20T08:29:39.532430
4116.43701171875,-792.7939453125,-800.5226440429688,-793.4448852539062,16.347999572753906,-1014.3079833984375,10.003999710083008,2023-04-20T08:29:39.541447
4116.44482421875,-687.7939453125,-695.5226440429688,-653.4448852539062,15.128000259399414,-1016.5040283203125,9.272000312805176,2023-04-20T08:29:39.547702
4116.45263671875,-267.7939453125,-485.52264404296875,-478.4449157714844,13.725000381469727,-1019.9199829101562,10.187000274658203,2023-04-20T08:29:39.555962
4116.4609375,117.2060546875,-310.52264404296875,-58.444908142089844,16.652999877929688,-1020.0419921875,9.942999839782715,2023-04-20T08:29:39.564523
4116.46875,432.2060546875,-275.52264404296875,116.55509185791016,18.90999984741211,-1017.541015625,10.248000144958496,2023-04-20T08:29:39.571766
4116.47705078125,817.2060546875,-100.52264404296875,291.5550842285156,16.95800018310547,-1012.843994140625,10.980000495910645,2023-04-20T08:29:39.580991
4116.48486328125,957.2060546875,39.47735595703125,361.5550842285156,15.73799991607666,-1013.697998046875,11.834000587463379,2023-04-20T08:29:39.590785
4116.49267578125,1097.2060546875,39.47735595703125,361.5550842285156,13.968999862670898,-1013.697998046875,11.59000015258789,2023-04-20T08:29:39.595787
4116.5009765625,1167.2060546875,74.47735595703125,536.5551147460938,14.640000343322754,-1012.1730346679688,14.152000427246094,2023-04-20T08:29:39.605692
4116.5087890625,1342.2060546875,74.47735595703125,641.5551147460938,13.664000511169434,-1008.635009765625,12.565999984741211,2023-04-20T08:29:39.611977
4116.51708984375,1307.2060546875,39.47735595703125,956.5551147460938,11.651000022888184,-1003.6329956054688,14.640000343322754,2023-04-20T08:29:39.620148
4116.52490234375,1132.2060546875,39.47735595703125,1201.5550537109375,9.08899974822998,-1005.8900146484375,14.76200008392334,2023-04-20T08:29:39.630236
4116.53271484375,1097.2060546875,39.47735595703125,1306.5550537109375,7.320000171661377,-1006.988037109375,15.798999786376953,2023-04-20T08:29:39.637735
4116.541015625,817.2060546875,4.477356910705566,1516.5550537109375,6.64900016784668,-1012.9660034179688,16.347999572753906,2023-04-20T08:29:39.644735
4116.548828125,747.2060546875,4.477356910705566,1866.5550537109375,8.357000350952148,-1008.0250244140625,15.921000480651855,2023-04-20T08:29:39.652098
4116.556640625,642.2060546875,-30.52264404296875,1971.5550537109375,8.784000396728516,-1003.4500122070312,15.067000389099121,2023-04-20T08:29:39.659273
4116.56494140625,257.2060546875,-100.52264404296875,1761.5550537109375,8.479000091552734,-998.2040405273438,16.28700065612793,2023-04-20T08:29:39.672168
4116.57275390625,-302.7939453125,4.477356910705566,1201.5550537109375,8.539999961853027,-1003.3890380859375,14.76200008392334,2023-04-20T08:29:39.675195
4116.58056640625,-582.7939453125,4.477356910705566,956.5551147460938,8.723000526428223,-1006.4390258789062,14.456999778747559,2023-04-20T08:29:39.683666
4116.5888671875,-547.7939453125,-65.52264404296875,536.5551147460938,9.699000358581543,-1009.489013671875,13.237000465393066,2023-04-20T08:29:39.692163
4116.5966796875,-477.7939453125,-170.52264404296875,291.5550842285156,10.065000534057617,-1012.1730346679688,14.152000427246094,2023-04-20T08:29:39.704826
4116.60498046875,-337.7939453125,-240.52264404296875,81.55509185791016,8.784000396728516,-1011.5020141601562,15.006000518798828,2023-04-20T08:29:39.708926
4116.61279296875,-267.7939453125,-135.52264404296875,-128.4449005126953,12.138999938964844,-1013.0880126953125,13.359000205993652,2023-04-20T08:29:39.716515
4116.62109375,-92.7939453125,-30.52264404296875,-163.4449005126953,13.664000511169434,-1013.2100219726562,13.359000205993652,2023-04-20T08:29:39.723371
4116.62890625,12.206053733825684,-30.52264404296875,-163.4449005126953,13.29800033569336,-1010.77001953125,12.199999809265137,2023-04-20T08:29:39.736073
4116.63671875,117.2060546875,109.47735595703125,-58.444908142089844,14.152000427246094,-1009.5499877929688,10.553000450134277,2023-04-20T08:29:39.739280
4116.64501953125,117.2060546875,249.47735595703125,11.555092811584473,12.932000160217285,-1008.5740356445312,11.711999893188477,2023-04-20T08:29:39.747659
4116.65283203125,-22.7939453125,424.47735595703125,46.555091857910156,11.834000587463379,-1008.3300170898438,12.322000503540039,2023-04-20T08:29:39.755979
4116.66064453125,47.2060546875,389.47735595703125,221.5550994873047,10.369999885559082,-1011.6240234375,12.322000503540039,2023-04-20T08:29:39.765611
4116.6689453125,82.2060546875,459.47735595703125,291.5550842285156,9.027999877929688,-1012.47802734375,12.565999984741211,2023-04-20T08:29:39.771611
4116.6767578125,467.2060546875,249.47735595703125,291.5550842285156,8.052000045776367,-1010.343017578125,14.579000473022461,2023-04-20T08:29:39.783024
4116.68505859375,817.2060546875,144.47735595703125,326.5550842285156,9.333000183105469,-1009.916015625,14.579000473022461,2023-04-20T08:29:39.790388
4116.69287109375,852.2060546875,4.477356910705566,291.5550842285156,9.57699966430664,-1008.8179931640625,15.982000350952148,2023-04-20T08:29:39.797851
4116.70068359375,1027.2060546875,-135.52264404296875,396.5550842285156,9.454999923706055,-1007.35400390625,16.104000091552734,2023-04-20T08:29:39.804114
4116.708984375,1027.2060546875,-240.52264404296875,536.5551147460938,12.138999938964844,-1006.1950073242188,15.798999786376953,2023-04-20T08:29:39.811767
4116.716796875,992.2060546875,-275.52264404296875,536.5551147460938,11.651000022888184,-1005.7680053710938,17.323999404907227,2023-04-20T08:29:39.820140
4116.724609375,642.2060546875,-170.52264404296875,571.5551147460938,12.932000160217285,-1007.9639892578125,17.20199966430664,2023-04-20T08:29:39.827500
4116.73291015625,327.2060546875,-135.52264404296875,606.5551147460938,14.640000343322754,-1010.6480102539062,17.56800079345703,2023-04-20T08:29:39.848766
4116.7412109375,222.2060546875,-65.52264404296875,606.5551147460938,14.0910005569458,-1010.343017578125,18.23900032043457,2023-04-20T08:29:39.850767
4116.7490234375,-22.7939453125,109.47735595703125,711.5551147460938,14.456999778747559,-1010.9530029296875,19.2760009765625,2023-04-20T08:29:39.853767
4116.7568359375,-57.7939453125,214.47735595703125,746.5551147460938,14.76200008392334,-1010.4650268554688,18.23900032043457,2023-04-20T08:29:39.861189
4116.7646484375,-302.7939453125,424.47735595703125,816.5551147460938,15.433000564575195,-1008.0859985351562,17.141000747680664,2023-04-20T08:29:39.869602
4116.77294921875,-267.7939453125,634.4773559570312,746.5551147460938,13.420000076293945,-1006.072998046875,20.25200080871582,2023-04-20T08:29:39.875928
4116.78076171875,-197.7939453125,669.4773559570312,781.5551147460938,13.053999900817871,-1008.0859985351562,17.750999450683594,2023-04-20T08:29:39.885380
4116.7890625,-92.7939453125,844.4773559570312,571.5551147460938,11.223999977111816,-1012.47802734375,18.604999542236328,2023-04-20T08:29:39.893262
4116.796875,257.2060546875,984.4773559570312,571.5551147460938,13.420000076293945,-1012.3560180664062,17.93400001525879,2023-04-20T08:29:39.902565
4116.80517578125,327.2060546875,984.4773559570312,536.5551147460938,12.017000198364258,-1010.5260009765625,18.17799949645996,2023-04-20T08:29:39.908681
4116.81298828125,537.2060546875,949.4773559570312,501.5550842285156,12.383000373840332,-1004.9140014648438,15.798999786376953,2023-04-20T08:29:39.918940
4116.82080078125,292.2060546875,1124.4774169921875,571.5551147460938,10.248000144958496,-1002.656982421875,17.141000747680664,2023-04-20T08:29:39.925679
4116.82861328125,12.206053733825684,1159.4774169921875,501.5550842285156,11.59000015258789,-1006.0120239257812,17.812000274658203,2023-04-20T08:29:39.934779
4116.8369140625,-407.7939453125,1264.4774169921875,711.5551147460938,10.736000061035156,-1007.1099853515625,16.165000915527344,2023-04-20T08:29:39.941027
4116.8447265625,-617.7939453125,1264.4774169921875,886.5551147460938,8.11299991607666,-1009.7940063476562,15.555000305175781,2023-04-20T08:29:39.949629
4116.85302734375,-477.7939453125,1194.4774169921875,886.5551147460938,7.685999870300293,-1010.1600341796875,15.006000518798828,2023-04-20T08:29:39.957946
4116.86083984375,-372.7939453125,984.4773559570312,921.5551147460938,4.026000022888184,-1011.197021484375,15.921000480651855,2023-04-20T08:29:39.964168
4116.86865234375,-162.7939453125,914.4773559570312,886.5551147460938,5.246000289916992,-1013.1489868164062,16.774999618530273,2023-04-20T08:29:39.977413
4116.876953125,82.2060546875,704.4773559570312,816.5551147460938,6.40500020980835,-1012.1730346679688,16.89699935913086,2023-04-20T08:29:39.980413
4116.884765625,362.2060546875,564.4773559570312,711.5551147460938,7.076000213623047,-1009.489013671875,17.750999450683594,2023-04-20T08:29:39.988955
4116.89306640625,432.2060546875,494.47735595703125,676.5551147460938,7.441999912261963,-1008.9400024414062,18.117000579833984,2023-04-20T08:29:39.995439
4116.90087890625,397.2060546875,494.47735595703125,676.5551147460938,7.13700008392334,-1006.0120239257812,17.750999450683594,2023-04-20T08:29:40.010531
4116.90869140625,292.2060546875,564.4773559570312,711.5551147460938,9.881999969482422,-1004.7919921875,16.95800018310547,2023-04-20T08:29:40.014037
4116.9169921875,152.2060546875,599.4773559570312,746.5551147460938,9.942999839782715,-1005.0969848632812,17.9950008392334,2023-04-20T08:29:40.019138
4116.9248046875,117.2060546875,599.4773559570312,711.5551147460938,9.272000312805176,-1005.9509887695312,19.031999588012695,2023-04-20T08:29:40.030636
4116.9326171875,-57.7939453125,599.4773559570312,711.5551147460938,8.661999702453613,-1007.6589965820312,19.093000411987305,2023-04-20T08:29:40.035802
4116.94091796875,-92.7939453125,564.4773559570312,711.5551147460938,9.211000442504883,-1007.4760131835938,18.54400062561035,2023-04-20T08:29:40.043982
4116.94873046875,-127.7939453125,599.4773559570312,746.5551147460938,10.003999710083008,-1007.6589965820312,17.141000747680664,2023-04-20T08:29:40.052636
4116.95703125,-302.7939453125,669.4773559570312,851.5551147460938,8.661999702453613,-1007.9639892578125,17.019001007080078,2023-04-20T08:29:40.062907
4116.96484375,-232.7939453125,669.4773559570312,816.5551147460938,8.234999656677246,-1008.7570190429688,17.690000534057617,2023-04-20T08:29:40.067983
4116.97314453125,-337.7939453125,739.4773559570312,851.5551147460938,8.418000221252441,-1009.1229858398438,18.666000366210938,2023-04-20T08:29:40.076405
4116.98095703125,-337.7939453125,774.4773559570312,746.5551147460938,8.479000091552734,-1009.3670043945312,15.798999786376953,2023-04-20T08:29:40.083610
4116.98876953125,-407.7939453125,879.4773559570312,781.5551147460938,8.661999702453613,-1009.1229858398438,16.409000396728516,2023-04-20T08:29:40.091774
4116.9970703125,-442.7939453125,914.4773559570312,711.5551147460938,7.564000129699707,-1009.1840209960938,16.774999618530273,2023-04-20T08:29:40.099834
4117.0048828125,-372.7939453125,949.4773559570312,676.5551147460938,8.723000526428223,-1010.0380249023438,16.104000091552734,2023-04-20T08:29:40.108472
4117.0126953125,-337.7939453125,949.4773559570312,606.5551147460938,8.723000526428223,-1010.2210083007812,16.836000442504883,2023-04-20T08:29:40.116049
4117.02099609375,-232.7939453125,1089.4774169921875,466.5550842285156,9.699000358581543,-1008.7570190429688,16.652999877929688,2023-04-20T08:29:40.123074
4117.02880859375,-302.7939453125,1054.4774169921875,431.5550842285156,9.15000057220459,-1008.3300170898438,17.26300048828125,2023-04-20T08:29:40.131191
4117.03662109375,-267.7939453125,1054.4774169921875,326.5550842285156,7.991000175476074,-1007.4760131835938,15.982000350952148,2023-04-20T08:29:40.141647
4117.044921875,-267.7939453125,914.4773559570312,221.5550994873047,5.611999988555908,-1011.8070068359375,15.860000610351562,2023-04-20T08:29:40.147360
4117.052734375,-302.7939453125,879.4773559570312,256.5550842285156,5.9170002937316895,-1011.8070068359375,14.152000427246094,2023-04-20T08:29:40.156153
4117.06103515625,-22.7939453125,704.4773559570312,501.5550842285156,4.330999851226807,-1012.1730346679688,15.25,2023-04-20T08:29:40.164646
4117.06884765625,12.206053733825684,529.4773559570312,606.5551147460938,4.940999984741211,-1009.0010375976562,14.822999954223633,2023-04-20T08:29:40.172674
4117.07666015625,82.2060546875,494.47735595703125,641.5551147460938,4.636000156402588,-1008.1470336914062,14.883999824523926,2023-04-20T08:29:40.184688
4117.0849609375,82.2060546875,284.47735595703125,781.5551147460938,5.978000164031982,-1008.1470336914062,15.128000259399414,2023-04-20T08:29:40.188870
4117.0927734375,152.2060546875,214.47735595703125,711.5551147460938,5.9170002937316895,-1008.0250244140625,14.822999954223633,2023-04-20T08:29:40.197972
4117.10107421875,187.2060546875,144.47735595703125,816.5551147460938,7.197999954223633,-1007.6589965820312,16.347999572753906,2023-04-20T08:29:40.203486
4117.10888671875,187.2060546875,74.47735595703125,746.5551147460938,6.710000038146973,-1006.8049926757812,16.652999877929688,2023-04-20T08:29:40.217088
4117.11669921875,257.2060546875,109.47735595703125,746.5551147460938,8.234999656677246,-1006.0120239257812,17.93400001525879,2023-04-20T08:29:40.219122
4117.125,222.2060546875,109.47735595703125,711.5551147460938,10.187000274658203,-1006.3779907226562,16.774999618530273,2023-04-20T08:29:40.229600
4117.1328125,257.2060546875,109.47735595703125,536.5551147460938,10.736000061035156,-1006.6829833984375,16.652999877929688,2023-04-20T08:29:40.236720
4117.14111328125,152.2060546875,144.47735595703125,466.5550842285156,9.760000228881836,-1008.5130004882812,17.750999450683594,2023-04-20T08:29:40.248413
4117.14892578125,187.2060546875,144.47735595703125,501.5550842285156,9.515999794006348,-1009.9769897460938,18.666000366210938,2023-04-20T08:29:40.252662
4117.15673828125,327.2060546875,109.47735595703125,676.5551147460938,9.515999794006348,-1009.2449951171875,18.055999755859375,2023-04-20T08:29:40.261044
4117.1650390625,222.2060546875,179.47735595703125,606.5551147460938,9.515999794006348,-1007.6589965820312,19.2760009765625,2023-04-20T08:29:40.270050
4117.1728515625,222.2060546875,39.47735595703125,501.5550842285156,7.320000171661377,-1006.988037109375,19.093000411987305,2023-04-20T08:29:40.275248
4117.1806640625,47.2060546875,74.47735595703125,571.5551147460938,7.564000129699707,-1010.6480102539062,17.812000274658203,2023-04-20T08:29:40.283824
4117.18896484375,47.2060546875,39.47735595703125,536.5551147460938,7.685999870300293,-1009.4280395507812,19.031999588012695,2023-04-20T08:29:40.292178
4117.19677734375,-57.7939453125,74.47735595703125,571.5551147460938,8.845000267028809,-1007.1710205078125,18.361000061035156,2023-04-20T08:29:40.300555
4117.20458984375,-197.7939453125,4.477356910705566,536.5551147460938,7.13700008392334,-1006.2559814453125,17.812000274658203,2023-04-20T08:29:40.312764
4117.212890625,-337.7939453125,-65.52264404296875,431.5550842285156,8.539999961853027,-1006.072998046875,17.56800079345703,2023-04-20T08:29:40.316817
4117.220703125,-512.7939453125,4.477356910705566,361.5550842285156,9.63800048828125,-1007.1099853515625,17.079999923706055,2023-04-20T08:29:40.325639
4117.22900390625,-512.7939453125,-30.52264404296875,291.5550842285156,9.821000099182129,-1007.9030151367188,18.30000114440918,2023-04-20T08:29:40.332814
4117.23681640625,-582.7939453125,4.477356910705566,221.5550994873047,11.10200023651123,-1009.1840209960938,17.690000534057617,2023-04-20T08:29:40.345413
4117.24462890625,-757.7939453125,109.47735595703125,151.5550994873047,11.77299976348877,-1010.1600341796875,17.628999710083008,2023-04-20T08:29:40.348898
4117.2529296875,-687.7939453125,144.47735595703125,151.5550994873047,11.711999893188477,-1010.281982421875,16.652999877929688,2023-04-20T08:29:40.357377
4117.2607421875,-687.7939453125,249.47735595703125,256.5550842285156,12.687999725341797,-1010.4650268554688,17.56800079345703,2023-04-20T08:29:40.364775
4117.26904296875,-652.7939453125,424.47735595703125,431.5550842285156,12.871000289916992,-1009.1840209960938,17.56800079345703,2023-04-20T08:29:40.376509
4117.27685546875,-722.7939453125,529.4773559570312,501.5550842285156,11.77299976348877,-1008.0250244140625,16.469999313354492,2023-04-20T08:29:40.379707
4117.28466796875,-582.7939453125,634.4773559570312,501.5550842285156,12.871000289916992,-1008.2689819335938,16.836000442504883,2023-04-20T08:29:40.387897
4117.29296875,-582.7939453125,879.4773559570312,501.5550842285156,11.10200023651123,-1009.7330322265625,15.371999740600586,2023-04-20T08:29:40.395951
4117.30078125,-547.7939453125,914.4773559570312,606.5551147460938,9.394000053405762,-1009.3670043945312,16.347999572753906,2023-04-20T08:29:40.406954
4117.30908203125,-512.7939453125,1019.4773559570312,711.5551147460938,8.845000267028809,-1008.0250244140625,14.579000473022461,2023-04-20T08:29:40.414501
4117.31689453125,-547.7939453125,1054.4774169921875,746.5551147460938,8.234999656677246,-1008.2080078125,14.152000427246094,2023-04-20T08:29:40.419675
4117.32470703125,-372.7939453125,1019.4773559570312,711.5551147460938,7.625,-1007.781005859375,14.944999694824219,2023-04-20T08:29:40.427714
4117.3330078125,-547.7939453125,1019.4773559570312,711.5551147460938,5.063000202178955,-1009.6110229492188,13.847000122070312,2023-04-20T08:29:40.440802
4117.3408203125,-407.7939453125,914.4773559570312,676.5551147460938,4.392000198364258,-1010.9530029296875,13.420000076293945,2023-04-20T08:29:40.444868
4117.3486328125,-302.7939453125,809.4773559570312,641.5551147460938,2.927999973297119,-1012.843994140625,12.322000503540039,2023-04-20T08:29:40.452657
4117.35693359375,-127.7939453125,599.4773559570312,501.5550842285156,4.880000114440918,-1013.4540405273438,13.664000511169434,2023-04-20T08:29:40.459707
4117.36474609375,-57.7939453125,599.4773559570312,501.5550842285156,5.734000205993652,-1013.6370239257812,12.017000198364258,2023-04-20T08:29:40.471810
4117.373046875,82.2060546875,424.47735595703125,466.5550842285156,5.246000289916992,-1011.4410400390625,13.237000465393066,2023-04-20T08:29:40.478810
4117.380859375,292.2060546875,249.47735595703125,361.5550842285156,6.40500020980835,-1008.8179931640625,14.518000602722168,2023-04-20T08:29:40.483836
4117.388671875,257.2060546875,214.47735595703125,256.5550842285156,6.1610002517700195,-1009.06201171875,14.76200008392334,2023-04-20T08:29:40.492011
4117.39697265625,432.2060546875,4.477356910705566,11.555092811584473,6.5269999504089355,-1008.2689819335938,16.22599983215332,2023-04-20T08:29:40.502193
4117.40478515625,607.2060546875,-100.52264404296875,11.555092811584473,5.063000202178955,-1005.8290405273438,15.067000389099121,2023-04-20T08:29:40.508883
4117.4130859375,537.2060546875,-170.52264404296875,11.555092811584473,6.770999908447266,-1004.7310180664062,15.25,2023-04-20T08:29:40.516048
4117.4208984375,677.2060546875,-380.52264404296875,46.555091857910156,5.307000160217285,-1004.426025390625,16.59200096130371,2023-04-20T08:29:40.524357
4117.4287109375,502.2060546875,-485.52264404296875,11.555092811584473,3.2940001487731934,-1006.7440185546875,18.97100067138672,2023-04-20T08:29:40.536557
4117.43701171875,362.2060546875,-520.5226440429688,151.5550994873047,2.989000082015991,-1010.8309936523438,18.54400062561035,2023-04-20T08:29:40.539616
4117.44482421875,327.2060546875,-520.5226440429688,466.5550842285156,6.2220001220703125,-1008.5740356445312,17.750999450683594,2023-04-20T08:29:40.548842
4117.45263671875,257.2060546875,-485.52264404296875,501.5550842285156,7.625,-1005.4630126953125,18.30000114440918,2023-04-20T08:29:40.556069
4117.4609375,-127.7939453125,-520.5226440429688,466.5550842285156,9.942999839782715,-1001.7420043945312,18.422000885009766,2023-04-20T08:29:40.565446
4117.46875,-617.7939453125,-485.52264404296875,221.5550994873047,11.59000015258789,-1005.0969848632812,18.788000106811523,2023-04-20T08:29:40.571451
4117.47705078125,-862.7939453125,-450.52264404296875,11.555092811584473,12.444000244140625,-1007.842041015625,18.23900032043457,2023-04-20T08:29:40.585468
4117.48486328125,-1037.7939453125,-205.52264404296875,-58.444908142089844,15.433000564575195,-1012.1730346679688,16.714000701904297,2023-04-20T08:29:40.587480
4117.49267578125,-897.7939453125,-135.52264404296875,-163.4449005126953,16.469999313354492,-1013.6370239257812,17.079999923706055,2023-04-20T08:29:40.594627
4117.5009765625,-932.7939453125,39.47735595703125,-163.4449005126953,15.982000350952148,-1014.0029907226562,16.469999313354492,2023-04-20T08:29:40.604625
4117.5087890625,-757.7939453125,319.47735595703125,-303.4449157714844,16.22599983215332,-1014.7349853515625,17.141000747680664,2023-04-20T08:29:40.614732
4117.5166015625,-477.7939453125,529.4773559570312,-198.4449005126953,18.666000366210938,-1012.843994140625,18.604999542236328,2023-04-20T08:29:40.619732
4117.52490234375,-442.7939453125,669.4773559570312,-198.4449005126953,18.54400062561035,-1011.7460327148438,17.93400001525879,2023-04-20T08:29:40.628319
4117.53271484375,-197.7939453125,984.4773559570312,11.555092811584473,18.97100067138672,-1010.4039916992188,15.189000129699707,2023-04-20T08:29:40.636095
4117.541015625,-302.7939453125,1264.4774169921875,116.55509185791016,18.055999755859375,-1007.6589965820312,15.494000434875488,2023-04-20T08:29:40.643712
4117.548828125,-267.7939453125,1334.4774169921875,116.55509185791016,16.347999572753906,-1008.2689819335938,16.5310001373291,2023-04-20T08:29:40.653712
4117.55712890625,-407.7939453125,1544.4774169921875,256.5550842285156,15.189000129699707,-1008.0250244140625,15.25,2023-04-20T08:29:40.664183
4117.56494140625,-407.7939453125,1509.4774169921875,291.5550842285156,13.78600025177002,-1009.2449951171875,15.067000389099121,2023-04-20T08:29:40.669483
4117.57275390625,-337.7939453125,1404.4774169921875,396.5550842285156,11.345999717712402,-1010.0989990234375,15.798999786376953,2023-04-20T08:29:40.674944
4117.58056640625,-267.7939453125,1264.4774169921875,536.5551147460938,11.10200023651123,-1010.77001953125,15.494000434875488,2023-04-20T08:29:40.684690
4117.5888671875,-92.7939453125,1124.4774169921875,641.5551147460938,8.234999656677246,-1011.5020141601562,15.677000045776367,2023-04-20T08:29:40.694543
4117.5966796875,-22.7939453125,844.4773559570312,921.5551147460938,8.479000091552734,-1011.135986328125,14.0910005569458,2023-04-20T08:29:40.699543
4117.60498046875,-22.7939453125,494.47735595703125,1131.5550537109375,6.953999996185303,-1009.06201171875,14.579000473022461,2023-04-20T08:29:40.712729
4117.61279296875,-22.7939453125,424.47735595703125,1201.5550537109375,8.173999786376953,-1009.7330322265625,16.22599983215332,2023-04-20T08:29:40.718803
4117.62060546875,-197.7939453125,214.47735595703125,1306.5550537109375,7.320000171661377,-1008.4520263671875,15.310999870300293,2023-04-20T08:29:40.723994
4117.62890625,-267.7939453125,39.47735595703125,1481.5550537109375,8.296000480651855,-1005.0969848632812,14.640000343322754,2023-04-20T08:29:40.731206
4117.63671875,-372.7939453125,4.477356910705566,1446.5550537109375,9.15000057220459,-1004.9750366210938,17.56800079345703,2023-04-20T08:29:40.740369
4117.64501953125,-477.7939453125,-30.52264404296875,1341.5550537109375,10.369999885559082,-1008.2080078125,15.310999870300293,2023-04-20T08:29:40.747369
4117.65283203125,-547.7939453125,74.47735595703125,1096.5550537109375,11.59000015258789,-1009.2449951171875,15.128000259399414,2023-04-20T08:29:40.757984
4117.66064453125,-582.7939453125,39.47735595703125,956.5551147460938,11.59000015258789,-1008.9400024414062,15.73799991607666,2023-04-20T08:29:40.763986
4117.6689453125,-477.7939453125,74.47735595703125,816.5551147460938,12.138999938964844,-1007.2319946289062,15.006000518798828,2023-04-20T08:29:40.770876
4117.6767578125,-477.7939453125,144.47735595703125,816.5551147460938,10.430999755859375,-1005.1580200195312,15.371999740600586,2023-04-20T08:29:40.780108
4117.68505859375,-197.7939453125,144.47735595703125,711.5551147460938,7.13700008392334,-1009.6110229492188,15.189000129699707,2023-04-20T08:29:40.789642
4117.69287109375,-162.7939453125,249.47735595703125,606.5551147460938,9.57699966430664,-1012.6610107421875,15.982000350952148,2023-04-20T08:29:40.800099
4117.70068359375,117.2060546875,249.47735595703125,641.5551147460938,8.845000267028809,-1013.27099609375,14.518000602722168,2023-04-20T08:29:40.803624
4117.708984375,257.2060546875,284.47735595703125,676.5551147460938,10.675000190734863,-1009.7330322265625,13.907999992370605,2023-04-20T08:29:40.811626
4117.716796875,257.2060546875,494.47735595703125,676.5551147460938,10.79699993133545,-1003.8160400390625,15.067000389099121,2023-04-20T08:29:40.821100
4117.724609375,152.2060546875,529.4773559570312,606.5551147460938,10.12600040435791,-1003.4500122070312,14.579000473022461,2023-04-20T08:29:40.827102
4117.73291015625,-232.7939453125,634.4773559570312,396.5550842285156,11.529000282287598,-1008.2080078125,15.73799991607666,2023-04-20T08:29:40.840830
4117.74072265625,-337.7939453125,844.4773559570312,326.5550842285156,9.699000358581543,-1010.4039916992188,15.128000259399414,2023-04-20T08:29:40.845666
4117.7490234375,-337.7939453125,844.4773559570312,291.5550842285156,9.63800048828125,-1012.2340087890625,14.944999694824219,2023-04-20T08:29:40.851521
4117.7568359375,12.206053733825684,704.4773559570312,151.5550994873047,8.173999786376953,-1012.1119995117188,14.395999908447266,2023-04-20T08:29:40.863330
4117.7646484375,152.2060546875,599.4773559570312,11.555092811584473,8.60099983215332,-1013.4540405273438,14.456999778747559,2023-04-20T08:29:40.869631
4117.77294921875,327.2060546875,564.4773559570312,46.555091857910156,10.003999710083008,-1013.697998046875,15.677000045776367,2023-04-20T08:29:40.879314
4117.78076171875,537.2060546875,564.4773559570312,46.555091857910156,9.942999839782715,-1013.1489868164062,14.456999778747559,2023-04-20T08:29:40.883898
4117.7890625,572.2060546875,599.4773559570312,256.5550842285156,10.553000450134277,-1012.051025390625,14.640000343322754,2023-04-20T08:29:40.893485
4117.796875,607.2060546875,599.4773559570312,361.5550842285156,9.881999969482422,-1010.5870361328125,15.310999870300293,2023-04-20T08:29:40.901096
4117.8046875,502.2060546875,669.4773559570312,501.5550842285156,9.515999794006348,-1008.5740356445312,14.76200008392334,2023-04-20T08:29:40.909698
4117.81298828125,432.2060546875,704.4773559570312,536.5551147460938,10.675000190734863,-1009.6110229492188,15.860000610351562,2023-04-20T08:29:40.919661
4117.82080078125,432.2060546875,739.4773559570312,606.5551147460938,8.173999786376953,-1009.5499877929688,15.494000434875488,2023-04-20T08:29:40.923662
4117.82861328125,537.2060546875,669.4773559570312,571.5551147460938,7.564000129699707,-1009.1229858398438,14.944999694824219,2023-04-20T08:29:40.931231
4117.8369140625,712.2060546875,564.4773559570312,536.5551147460938,7.441999912261963,-1007.781005859375,14.579000473022461,2023-04-20T08:29:40.941754
4117.8447265625,852.2060546875,494.47735595703125,396.5550842285156,5.978000164031982,-1007.842041015625,16.22599983215332,2023-04-20T08:29:40.949302
4117.85302734375,1097.2060546875,284.47735595703125,256.5550842285156,5.734000205993652,-1007.1710205078125,17.750999450683594,2023-04-20T08:29:40.955773
4117.86083984375,1097.2060546875,144.47735595703125,256.5550842285156,4.209000110626221,-1007.1099853515625,16.469999313354492,2023-04-20T08:29:40.965506
4117.86865234375,1237.2060546875,-100.52264404296875,81.55509185791016,4.513999938964844,-1005.7680053710938,17.93400001525879,2023-04-20T08:29:40.973619
4117.876953125,1097.2060546875,-345.52264404296875,-23.444908142089844,4.819000244140625,-1002.5350341796875,18.17799949645996,2023-04-20T08:29:40.983466
4117.884765625,922.2060546875,-380.52264404296875,-93.44490814208984,4.940999984741211,-1002.8400268554688,17.506999969482422,2023-04-20T08:29:40.992686
4117.892578125,572.2060546875,-485.52264404296875,-128.4449005126953,7.014999866485596,-1004.1210327148438,17.446001052856445,2023-04-20T08:29:41.002334
4117.90087890625,257.2060546875,-520.5226440429688,-163.4449005126953,8.11299991607666,-1008.0859985351562,19.336999893188477,2023-04-20T08:29:41.004965
4117.90869140625,222.2060546875,-485.52264404296875,-233.4449005126953,10.248000144958496,-1009.3060302734375,19.093000411987305,2023-04-20T08:29:41.011909
4117.9169921875,222.2060546875,-485.52264404296875,-338.4449157714844,10.309000015258789,-1010.77001953125,17.690000534057617,2023-04-20T08:29:41.023932
4117.9248046875,327.2060546875,-485.52264404296875,-408.4449157714844,9.760000228881836,-1010.708984375,18.666000366210938,2023-04-20T08:29:41.037196
4117.9326171875,187.2060546875,-345.52264404296875,-268.4449157714844,12.199999809265137,-1006.7440185546875,18.422000885009766,2023-04-20T08:29:41.043731
4117.94091796875,12.206053733825684,-30.52264404296875,-163.4449005126953,12.505000114440918,-1006.4390258789062,19.642000198364258,2023-04-20T08:29:41.054526
4117.94873046875,12.206053733825684,-30.52264404296875,-163.4449005126953,12.8100004196167,-1005.9509887695312,19.398000717163086,2023-04-20T08:29:41.054526
4117.95703125,-162.7939453125,144.47735595703125,-163.4449005126953,13.847000122070312,-1008.8790283203125,18.54400062561035,2023-04-20T08:29:41.064790
4117.96484375,-92.7939453125,214.47735595703125,-128.4449005126953,13.176000595092773,-1008.6959838867188,18.666000366210938,2023-04-20T08:29:41.067908
4117.97265625,-92.7939453125,319.47735595703125,-58.444908142089844,14.335000038146973,-1009.1229858398438,18.482999801635742,2023-04-20T08:29:41.077463
4117.98095703125,-92.7939453125,354.47735595703125,-23.444908142089844,12.8100004196167,-1008.3909912109375,18.90999984741211,2023-04-20T08:29:41.087478
4117.98876953125,-127.7939453125,424.47735595703125,11.555092811584473,13.480999946594238,-1009.916015625,18.90999984741211,2023-04-20T08:29:41.093614
4117.9970703125,-267.7939453125,459.47735595703125,11.555092811584473,14.152000427246094,-1008.5740356445312,17.690000534057617,2023-04-20T08:29:41.099613
4118.0048828125,-302.7939453125,459.47735595703125,81.55509185791016,14.883999824523926,-1011.5020141601562,18.482999801635742,2023-04-20T08:29:41.111253
4118.0126953125,-267.7939453125,424.47735595703125,256.5550842285156,14.518000602722168,-1010.5870361328125,18.055999755859375,2023-04-20T08:29:41.115830
4118.02099609375,-232.7939453125,389.47735595703125,291.5550842285156,13.420000076293945,-1010.8309936523438,18.30000114440918,2023-04-20T08:29:41.129553
4118.02880859375,-197.7939453125,459.47735595703125,431.5550842285156,13.359000205993652,-1009.8550415039062,18.055999755859375,2023-04-20T08:29:41.130716
4118.03662109375,-232.7939453125,389.47735595703125,501.5550842285156,13.29800033569336,-1011.2579956054688,17.385000228881836,2023-04-20T08:29:41.145779
4118.044921875,-162.7939453125,389.47735595703125,676.5551147460938,12.505000114440918,-1009.7330322265625,19.2760009765625,2023-04-20T08:29:41.151778
4118.052734375,-197.7939453125,424.47735595703125,886.5551147460938,11.711999893188477,-1009.9769897460938,18.666000366210938,2023-04-20T08:29:41.159846
4118.06103515625,-127.7939453125,354.47735595703125,991.5551147460938,11.834000587463379,-1010.0380249023438,18.604999542236328,2023-04-20T08:29:41.167015
4118.06884765625,-232.7939453125,354.47735595703125,1096.5550537109375,12.017000198364258,-1008.3300170898438,18.97100067138672,2023-04-20T08:29:41.173244
4118.0771484375,-267.7939453125,354.47735595703125,1131.5550537109375,11.407000541687012,-1007.781005859375,18.97100067138672,2023-04-20T08:29:41.179692
4118.0849609375,-232.7939453125,354.47735595703125,1061.5550537109375,11.223999977111816,-1009.1229858398438,18.23900032043457,2023-04-20T08:29:41.189048
4118.0927734375,-232.7939453125,389.47735595703125,991.5551147460938,12.505000114440918,-1007.1099853515625,19.336999893188477,2023-04-20T08:29:41.196067
4118.10107421875,-232.7939453125,424.47735595703125,956.5551147460938,11.223999977111816,-1006.3170166015625,18.117000579833984,2023-04-20T08:29:41.202561
4118.10888671875,-267.7939453125,459.47735595703125,851.5551147460938,11.407000541687012,-1006.56103515625,18.666000366210938,2023-04-20T08:29:41.215395
4118.11669921875,-267.7939453125,564.4773559570312,711.5551147460938,10.430999755859375,-1008.4520263671875,17.385000228881836,2023-04-20T08:29:41.224135
4118.125,-302.7939453125,634.4773559570312,746.5551147460938,8.661999702453613,-1008.8790283203125,17.750999450683594,2023-04-20T08:29:41.231461
4118.1328125,-197.7939453125,564.4773559570312,676.5551147460938,9.333000183105469,-1008.5130004882812,17.750999450683594,2023-04-20T08:29:41.236469
4118.140625,-127.7939453125,634.4773559570312,641.5551147460938,8.784000396728516,-1006.7440185546875,18.666000366210938,2023-04-20T08:29:41.244469
4118.14892578125,-197.7939453125,634.4773559570312,571.5551147460938,8.479000091552734,-1007.842041015625,17.750999450683594,2023-04-20T08:29:41.253585
4118.15673828125,-22.7939453125,599.4773559570312,501.5550842285156,8.845000267028809,-1007.1099853515625,18.604999542236328,2023-04-20T08:29:41.259586
4118.1650390625,-92.7939453125,529.4773559570312,396.5550842285156,8.784000396728516,-1006.1950073242188,18.666000366210938,2023-04-20T08:29:41.272303
4118.1728515625,-22.7939453125,494.47735595703125,361.5550842285156,9.942999839782715,-1006.8049926757812,17.506999969482422,2023-04-20T08:29:41.277603
4118.1806640625,-197.7939453125,599.4773559570312,326.5550842285156,10.430999755859375,-1005.5850219726562,19.093000411987305,2023-04-20T08:29:41.283972
4118.18896484375,-442.7939453125,704.4773559570312,221.5550994873047,9.63800048828125,-1006.1950073242188,17.812000274658203,2023-04-20T08:29:41.290973
4118.19677734375,-512.7939453125,739.4773559570312,256.5550842285156,11.77299976348877,-1006.8049926757812,18.422000885009766,2023-04-20T08:29:41.306125
4118.20458984375,-687.7939453125,739.4773559570312,291.5550842285156,10.553000450134277,-1008.2080078125,17.9950008392334,2023-04-20T08:29:41.309351
4118.212890625,-652.7939453125,739.4773559570312,291.5550842285156,9.027999877929688,-1009.5499877929688,16.774999618530273,2023-04-20T08:29:41.316910
4118.220703125,-722.7939453125,774.4773559570312,466.5550842285156,9.394000053405762,-1009.9769897460938,16.28700065612793,2023-04-20T08:29:41.322909
4118.22900390625,-547.7939453125,634.4773559570312,466.5550842285156,10.918999671936035,-1011.8679809570312,17.628999710083008,2023-04-20T08:29:41.335195
4118.23681640625,-302.7939453125,634.4773559570312,571.5551147460938,11.529000282287598,-1010.4039916992188,16.409000396728516,2023-04-20T08:29:41.342434
4118.24462890625,-302.7939453125,599.4773559570312,536.5551147460938,12.322000503540039,-1009.0010375976562,15.982000350952148,2023-04-20T08:29:41.347629
4118.2529296875,-162.7939453125,564.4773559570312,536.5551147460938,11.895000457763672,-1007.5980224609375,15.371999740600586,2023-04-20T08:29:41.355118
4118.2607421875,-232.7939453125,494.47735595703125,466.5550842285156,9.821000099182129,-1006.988037109375,16.042999267578125,2023-04-20T08:29:41.364308
4118.26904296875,-127.7939453125,459.47735595703125,466.5550842285156,9.027999877929688,-1008.8179931640625,16.042999267578125,2023-04-20T08:29:41.372389
4118.27685546875,-57.7939453125,354.47735595703125,501.5550842285156,9.454999923706055,-1008.5740356445312,15.310999870300293,2023-04-20T08:29:41.379873
4118.28466796875,12.206053733825684,284.47735595703125,536.5551147460938,11.041000366210938,-1006.3779907226562,16.104000091552734,2023-04-20T08:29:41.388234
4118.29296875,-57.7939453125,144.47735595703125,711.5551147460938,5.9170002937316895,-1004.0599975585938,16.652999877929688,2023-04-20T08:29:41.395581
4118.30078125,-197.7939453125,4.477356910705566,781.5551147460938,4.269999980926514,-1007.842041015625,17.690000534057617,2023-04-20T08:29:41.405211
4118.30859375,-232.7939453125,39.47735595703125,886.5551147460938,5.490000247955322,-1011.0750122070312,17.446001052856445,2023-04-20T08:29:41.416270
4118.31689453125,-337.7939453125,-30.52264404296875,1096.5550537109375,6.770999908447266,-1013.33203125,18.23900032043457,2023-04-20T08:29:41.419270
4118.32470703125,-197.7939453125,-100.52264404296875,1096.5550537109375,8.234999656677246,-1009.0010375976562,17.20199966430664,2023-04-20T08:29:41.429539
4118.3330078125,-267.7939453125,-170.52264404296875,1061.5550537109375,9.942999839782715,-1006.2559814453125,17.385000228881836,2023-04-20T08:29:41.438446
4118.3408203125,-547.7939453125,-170.52264404296875,641.5551147460938,12.199999809265137,-1003.2670288085938,17.141000747680664,2023-04-20T08:29:41.447681
4118.34912109375,-862.7939453125,-205.52264404296875,116.55509185791016,12.017000198364258,-1007.781005859375,17.26300048828125,2023-04-20T08:29:41.453349
4118.35693359375,-1037.7939453125,-135.52264404296875,-93.44490814208984,11.59000015258789,-1008.2080078125,15.433000564575195,2023-04-20T08:29:41.460675
4118.36474609375,-1002.7939453125,-100.52264404296875,-268.4449157714844,12.687999725341797,-1012.051025390625,16.22599983215332,2023-04-20T08:29:41.468774
4118.373046875,-897.7939453125,-30.52264404296875,-408.4449157714844,10.857999801635742,-1011.0750122070312,15.921000480651855,2023-04-20T08:29:41.480146
4118.380859375,-827.7939453125,4.477356910705566,-443.4449157714844,11.468000411987305,-1010.4039916992188,17.26300048828125,2023-04-20T08:29:41.484409
4118.388671875,-652.7939453125,74.47735595703125,-513.4448852539062,14.029999732971191,-1009.2449951171875,15.25,2023-04-20T08:29:41.495097
4118.39697265625,-547.7939453125,144.47735595703125,-583.4448852539062,14.335000038146973,-1009.9769897460938,15.25,2023-04-20T08:29:41.500096
4118.40478515625,-407.7939453125,214.47735595703125,-478.4449157714844,15.371999740600586,-1010.0989990234375,15.73799991607666,2023-04-20T08:29:41.507148
4118.41259765625,-407.7939453125,389.47735595703125,-373.4449157714844,15.067000389099121,-1008.6959838867188,14.883999824523926,2023-04-20T08:29:41.517148
4118.4208984375,-337.7939453125,529.4773559570312,-268.4449157714844,15.921000480651855,-1008.635009765625,14.822999954223633,2023-04-20T08:29:41.525508
4118.4287109375,-232.7939453125,529.4773559570312,-58.444908142089844,14.27400016784668,-1009.5499877929688,15.555000305175781,2023-04-20T08:29:41.534739
4118.43701171875,-92.7939453125,529.4773559570312,116.55509185791016,14.152000427246094,-1010.1600341796875,14.213000297546387,2023-04-20T08:29:41.540288
4118.44482421875,-92.7939453125,529.4773559570312,291.5550842285156,14.152000427246094,-1010.5260009765625,15.006000518798828,2023-04-20T08:29:41.551556
4118.45263671875,12.206053733825684,424.47735595703125,361.5550842285156,14.27400016784668,-1009.7330322265625,14.27400016784668,2023-04-20T08:29:41.556599
4118.4609375,222.2060546875,319.47735595703125,466.5550842285156,13.725000381469727,-1010.4039916992188,15.982000350952148,2023-04-20T08:29:41.566839
4118.46875,187.2060546875,249.47735595703125,466.5550842285156,13.237000465393066,-1010.0989990234375,14.76200008392334,2023-04-20T08:29:41.573750
4118.47705078125,257.2060546875,109.47735595703125,571.5551147460938,13.480999946594238,-1009.3060302734375,15.982000350952148,2023-04-20T08:29:41.582993
4118.48486328125,292.2060546875,4.477356910705566,536.5551147460938,13.237000465393066,-1009.7330322265625,16.347999572753906,2023-04-20T08:29:41.589607
4118.49267578125,292.2060546875,-65.52264404296875,431.5550842285156,13.359000205993652,-1009.489013671875,17.446001052856445,2023-04-20T08:29:41.597667
4118.5009765625,222.2060546875,-100.52264404296875,361.5550842285156,13.053999900817871,-1009.2449951171875,16.347999572753906,2023-04-20T08:29:41.604225
4118.5087890625,152.2060546875,-205.52264404296875,361.5550842285156,12.017000198364258,-1010.0989990234375,17.385000228881836,2023-04-20T08:29:41.613231
4118.5166015625,117.2060546875,-205.52264404296875,431.5550842285156,12.8100004196167,-1009.9769897460938,17.446001052856445,2023-04-20T08:29:41.620625
4118.5244140625,-57.7939453125,-205.52264404296875,501.5550842285156,14.579000473022461,-1011.8070068359375,15.798999786376953,2023-04-20T08:29:41.627009
4118.53271484375,-22.7939453125,-240.52264404296875,501.5550842285156,14.822999954223633,-1010.5870361328125,16.469999313354492,2023-04-20T08:29:41.640307
4118.541015625,-127.7939453125,-135.52264404296875,676.5551147460938,17.446001052856445,-1005.8290405273438,16.5310001373291,2023-04-20T08:29:41.643717
4118.548828125,-197.7939453125,39.47735595703125,711.5551147460938,15.067000389099121,-1006.3779907226562,16.89699935913086,2023-04-20T08:29:41.651968
4118.556640625,-197.7939453125,39.47735595703125,571.5551147460938,14.27400016784668,-1009.4280395507812,17.141000747680664,2023-04-20T08:29:41.659977
4118.56494140625,-92.7939453125,144.47735595703125,571.5551147460938,14.883999824523926,-1014.2470092773438,18.482999801635742,2023-04-20T08:29:41.670303
4118.57275390625,187.2060546875,319.47735595703125,641.5551147460938,16.59200096130371,-1012.9660034179688,19.458999633789062,2023-04-20T08:29:41.677660
4118.5810546875,292.2060546875,424.47735595703125,711.5551147460938,17.20199966430664,-1010.281982421875,17.750999450683594,2023-04-20T08:29:41.685312
4118.5888671875,292.2060546875,529.4773559570312,571.5551147460938,17.019001007080078,-1005.5239868164062,17.506999969482422,2023-04-20T08:29:41.691322
4118.5966796875,12.206053733825684,739.4773559570312,501.5550842285156,16.836000442504883,-1003.2670288085938,18.788000106811523,2023-04-20T08:29:41.699558
4118.60498046875,-197.7939453125,844.4773559570312,501.5550842285156,15.371999740600586,-1003.7550048828125,18.90999984741211,2023-04-20T08:29:41.711289
4118.61279296875,-372.7939453125,914.4773559570312,466.5550842285156,13.359000205993652,-1007.6589965820312,18.17799949645996,2023-04-20T08:29:41.718143
4118.62109375,-512.7939453125,1019.4773559570312,396.5550842285156,12.565999984741211,-1010.5260009765625,16.836000442504883,2023-04-20T08:29:41.723178
4118.62890625,-442.7939453125,984.4773559570312,431.5550842285156,12.26099967956543,-1013.27099609375,16.836000442504883,2023-04-20T08:29:41.734230
4118.63671875,-372.7939453125,844.4773559570312,431.5550842285156,11.468000411987305,-1015.0400390625,17.506999969482422,2023-04-20T08:29:41.741738
4118.64501953125,-197.7939453125,774.4773559570312,396.5550842285156,11.711999893188477,-1015.6500244140625,17.506999969482422,2023-04-20T08:29:41.746820
4118.65283203125,12.206053733825684,774.4773559570312,536.5551147460938,12.383000373840332,-1015.8330078125,16.652999877929688,2023-04-20T08:29:41.756342
4118.66064453125,222.2060546875,739.4773559570312,676.5551147460938,11.407000541687012,-1011.8070068359375,17.446001052856445,2023-04-20T08:29:41.764338
4118.6689453125,292.2060546875,739.4773559570312,781.5551147460938,13.725000381469727,-1011.3190307617188,17.141000747680664,2023-04-20T08:29:41.771450
4118.6767578125,257.2060546875,739.4773559570312,956.5551147460938,14.944999694824219,-1007.0490112304688,17.26300048828125,2023-04-20T08:29:41.780291
4118.68505859375,222.2060546875,739.4773559570312,991.5551147460938,12.8100004196167,-1006.7440185546875,17.141000747680664,2023-04-20T08:29:41.787840
4118.69287109375,82.2060546875,739.4773559570312,1096.5550537109375,12.565999984741211,-1006.3779907226562,17.446001052856445,2023-04-20T08:29:41.798386
4118.70068359375,152.2060546875,634.4773559570312,1096.5550537109375,8.967000007629395,-1007.9030151367188,17.019001007080078,2023-04-20T08:29:41.804286
4118.708984375,152.2060546875,529.4773559570312,1271.5550537109375,8.234999656677246,-1006.3779907226562,18.17799949645996,2023-04-20T08:29:41.812288
4118.716796875,47.2060546875,389.47735595703125,1201.5550537109375,8.661999702453613,-1005.64599609375,18.361000061035156,2023-04-20T08:29:41.820274
4118.724609375,-22.7939453125,319.47735595703125,1201.5550537109375,8.723000526428223,-1004.364990234375,16.89699935913086,2023-04-20T08:29:41.833318
4118.73291015625,-162.7939453125,319.47735595703125,1131.5550537109375,9.08899974822998,-1004.7310180664062,16.469999313354492,2023-04-20T08:29:41.835318
4118.74072265625,-337.7939453125,249.47735595703125,1061.5550537109375,8.357000350952148,-1006.134033203125,15.798999786376953,2023-04-20T08:29:41.844318
4118.7490234375,-442.7939453125,179.47735595703125,886.5551147460938,8.845000267028809,-1006.4390258789062,17.26300048828125,2023-04-20T08:29:41.853634
4118.7568359375,-442.7939453125,74.47735595703125,781.5551147460938,8.479000091552734,-1006.3170166015625,15.982000350952148,2023-04-20T08:29:41.865772
4118.7646484375,-477.7939453125,109.47735595703125,641.5551147460938,10.065000534057617,-1007.9030151367188,14.579000473022461,2023-04-20T08:29:41.867772
4118.77294921875,-547.7939453125,214.47735595703125,571.5551147460938,10.369999885559082,-1007.9639892578125,15.371999740600586,2023-04-20T08:29:41.878289
4118.78076171875,-442.7939453125,179.47735595703125,536.5551147460938,12.26099967956543,-1008.0250244140625,15.310999870300293,2023-04-20T08:29:41.884289
4118.7890625,-582.7939453125,319.47735595703125,466.5550842285156,10.369999885559082,-1010.5870361328125,15.433000564575195,2023-04-20T08:29:41.893655
4118.796875,-442.7939453125,424.47735595703125,501.5550842285156,11.407000541687012,-1013.2100219726562,14.640000343322754,2023-04-20T08:29:41.899651
4118.8046875,-407.7939453125,459.47735595703125,431.5550842285156,9.881999969482422,-1011.8070068359375,14.0910005569458,2023-04-20T08:29:41.911900
4118.81298828125,-197.7939453125,459.47735595703125,431.5550842285156,9.63800048828125,-1010.8309936523438,15.067000389099121,2023-04-20T08:29:41.916904
4118.82080078125,47.2060546875,459.47735595703125,431.5550842285156,10.736000061035156,-1011.0750122070312,15.433000564575195,2023-04-20T08:29:41.926288
4118.8291015625,47.2060546875,459.47735595703125,431.5550842285156,8.906000137329102,-1011.6849975585938,13.847000122070312,2023-04-20T08:29:41.931726
4118.8369140625,257.2060546875,389.47735595703125,291.5550842285156,8.60099983215332,-1011.3800048828125,14.395999908447266,2023-04-20T08:29:41.944495
4118.8447265625,292.2060546875,354.47735595703125,326.5550842285156,7.625,-1011.3190307617188,13.29800033569336,2023-04-20T08:29:41.949895
4118.85302734375,537.2060546875,249.47735595703125,291.5550842285156,9.211000442504883,-1009.0010375976562,15.25,2023-04-20T08:29:41.958258
4118.86083984375,572.2060546875,249.47735595703125,291.5550842285156,9.211000442504883,-1007.781005859375,14.944999694824219,2023-04-20T08:29:41.964392
4118.869140625,502.2060546875,144.47735595703125,151.5550994873047,9.211000442504883,-1008.3300170898438,14.27400016784668,2023-04-20T08:29:41.974577
4118.876953125,467.2060546875,4.477356910705566,151.5550994873047,9.454999923706055,-1009.489013671875,14.76200008392334,2023-04-20T08:29:41.980124
4118.884765625,397.2060546875,-30.52264404296875,256.5550842285156,12.26099967956543,-1009.9769897460938,16.042999267578125,2023-04-20T08:29:41.993051
4118.892578125,537.2060546875,-100.52264404296875,291.5550842285156,10.248000144958496,-1009.06201171875,16.104000091552734,2023-04-20T08:29:41.997052
4118.90087890625,467.2060546875,-170.52264404296875,256.5550842285156,11.895000457763672,-1008.6959838867188,16.409000396728516,2023-04-20T08:29:42.006664
4118.9091796875,502.2060546875,-240.52264404296875,326.5550842285156,11.529000282287598,-1009.489013671875,19.031999588012695,2023-04-20T08:29:42.011664
4118.9169921875,537.2060546875,-205.52264404296875,396.5550842285156,12.871000289916992,-1010.0380249023438,18.666000366210938,2023-04-20T08:29:42.024113
4118.9248046875,467.2060546875,-170.52264404296875,571.5551147460938,12.565999984741211,-1007.1099853515625,19.94700050354004,2023-04-20T08:29:42.028494
4118.93310546875,502.2060546875,-100.52264404296875,641.5551147460938,13.237000465393066,-1007.4150390625,20.374000549316406,2023-04-20T08:29:42.038141
4118.94091796875,397.2060546875,-65.52264404296875,641.5551147460938,13.968999862670898,-1007.781005859375,20.86199951171875,2023-04-20T08:29:42.044694
4118.94873046875,397.2060546875,-65.52264404296875,606.5551147460938,12.871000289916992,-1008.0250244140625,21.16699981689453,2023-04-20T08:29:42.052170
4118.95703125,222.2060546875,109.47735595703125,606.5551147460938,11.468000411987305,-1007.4150390625,20.5570011138916,2023-04-20T08:29:42.061213
4118.96484375,257.2060546875,214.47735595703125,536.5551147460938,10.430999755859375,-1008.3909912109375,22.082000732421875,2023-04-20T08:29:42.069571
4118.97265625,222.2060546875,319.47735595703125,536.5551147460938,12.505000114440918,-1009.8550415039062,21.472000122070312,2023-04-20T08:29:42.075960
4118.98095703125,152.2060546875,319.47735595703125,466.5550842285156,12.626999855041504,-1007.5369873046875,21.410999298095703,2023-04-20T08:29:42.088198
4118.98876953125,47.2060546875,459.47735595703125,431.5550842285156,13.053999900817871,-1006.988037109375,20.434999465942383,2023-04-20T08:29:42.093817
4118.9970703125,-127.7939453125,564.4773559570312,396.5550842285156,12.26099967956543,-1009.06201171875,20.374000549316406,2023-04-20T08:29:42.102283
4119.0048828125,-92.7939453125,564.4773559570312,361.5550842285156,13.237000465393066,-1009.1840209960938,20.98400115966797,2023-04-20T08:29:42.112377
4119.0126953125,-127.7939453125,634.4773559570312,256.5550842285156,15.189000129699707,-1009.1229858398438,19.21500015258789,2023-04-20T08:29:42.117703
4119.02099609375,-162.7939453125,669.4773559570312,151.5550994873047,13.725000381469727,-1007.9639892578125,20.5570011138916,2023-04-20T08:29:42.125023
4119.02880859375,-127.7939453125,669.4773559570312,186.5550994873047,13.664000511169434,-1008.5740356445312,19.520000457763672,2023-04-20T08:29:42.137502
4119.037109375,-57.7939453125,634.4773559570312,291.5550842285156,12.8100004196167,-1009.1229858398438,18.361000061035156,2023-04-20T08:29:42.141030
4119.044921875,-127.7939453125,599.4773559570312,291.5550842285156,12.871000289916992,-1009.4280395507812,19.520000457763672,2023-04-20T08:29:42.149350
4119.052734375,-232.7939453125,669.4773559570312,431.5550842285156,12.565999984741211,-1008.2689819335938,19.458999633789062,2023-04-20T08:29:42.156366
4119.06103515625,-197.7939453125,739.4773559570312,431.5550842285156,14.822999954223633,-1008.635009765625,18.23900032043457,2023-04-20T08:29:42.167820
4119.06884765625,-372.7939453125,844.4773559570312,606.5551147460938,13.29800033569336,-1008.2689819335938,20.801000595092773,2023-04-20T08:29:42.170927
4119.07666015625,-407.7939453125,949.4773559570312,641.5551147460938,14.0910005569458,-1008.0859985351562,19.21500015258789,2023-04-20T08:29:42.180248
4119.0849609375,-267.7939453125,949.4773559570312,606.5551147460938,15.982000350952148,-1010.0989990234375,19.88599967956543,2023-04-20T08:29:42.187721
4119.0927734375,-372.7939453125,1089.4774169921875,571.5551147460938,15.921000480651855,-1011.135986328125,19.703001022338867,2023-04-20T08:29:42.196930
4119.10107421875,-232.7939453125,1369.4774169921875,606.5551147460938,14.883999824523926,-1010.6480102539062,18.055999755859375,2023-04-20T08:29:42.204929
4119.10888671875,-127.7939453125,1509.4774169921875,501.5550842285156,15.433000564575195,-1010.4650268554688,18.17799949645996,2023-04-20T08:29:42.211831
4119.11669921875,-22.7939453125,1509.4774169921875,396.5550842285156,13.968999862670898,-1010.343017578125,18.97100067138672,2023-04-20T08:29:42.220452
4119.125,12.206053733825684,1544.4774169921875,291.5550842285156,12.505000114440918,-1011.0140380859375,18.361000061035156,2023-04-20T08:29:42.232313
4119.1328125,82.2060546875,1509.4774169921875,291.5550842285156,10.553000450134277,-1008.5130004882812,18.361000061035156,2023-04-20T08:29:42.235334
4119.14111328125,222.2060546875,1404.4774169921875,431.5550842285156,10.248000144958496,-1005.1580200195312,19.15399932861328,2023-04-20T08:29:42.245609
4119.14892578125,117.2060546875,1194.4774169921875,641.5551147460938,6.039000034332275,-1003.14501953125,18.604999542236328,2023-04-20T08:29:42.253952
4119.15673828125,152.2060546875,844.4773559570312,781.5551147460938,4.513999938964844,-1007.35400390625,19.093000411987305,2023-04-20T08:29:42.264260
4119.1650390625,-22.7939453125,774.4773559570312,886.5551147460938,3.9040000438690186,-1010.2210083007812,19.825000762939453,2023-04-20T08:29:42.268276
4119.1728515625,-92.7939453125,529.4773559570312,1096.5550537109375,5.795000076293945,-1011.135986328125,18.666000366210938,2023-04-20T08:29:42.279846
4119.1806640625,-127.7939453125,284.47735595703125,1271.5550537109375,8.173999786376953,-1006.4390258789062,18.666000366210938,2023-04-20T08:29:42.285445
4119.18896484375,-337.7939453125,214.47735595703125,1236.5550537109375,9.515999794006348,-1002.9010009765625,19.031999588012695,2023-04-20T08:29:42.295242
4119.19677734375,-652.7939453125,109.47735595703125,851.5551147460938,11.28499984741211,-1001.3760375976562,17.690000534057617,2023-04-20T08:29:42.300851
4119.205078125,-967.7939453125,109.47735595703125,711.5551147460938,11.895000457763672,-1002.291015625,17.141000747680664,2023-04-20T08:29:42.310412
4119.212890625,-1352.7939453125,144.47735595703125,221.5550994873047,13.29800033569336,-1008.6959838867188,16.714000701904297,2023-04-20T08:29:42.317521
4119.220703125,-1387.7939453125,109.47735595703125,116.55509185791016,14.0910005569458,-1012.1119995117188,16.165000915527344,2023-04-20T08:29:42.327154
4119.22900390625,-1247.7939453125,214.47735595703125,81.55509185791016,15.067000389099121,-1014.4299926757812,16.165000915527344,2023-04-20T08:29:42.333153
4119.23681640625,-1072.7939453125,319.47735595703125,-23.444908142089844,16.469999313354492,-1013.8200073242188,15.860000610351562,2023-04-20T08:29:42.343065
4119.24462890625,-897.7939453125,529.4773559570312,11.555092811584473,16.5310001373291,-1016.4429931640625,16.22599983215332,2023-04-20T08:29:42.348777
4119.2529296875,-687.7939453125,669.4773559570312,46.555091857910156,17.446001052856445,-1016.6260375976562,13.420000076293945,2023-04-20T08:29:42.358229
4119.2607421875,-302.7939453125,879.4773559570312,221.5550994873047,17.93400001525879,-1015.6500244140625,15.433000564575195,2023-04-20T08:29:42.369648
4119.26904296875,12.206053733825684,1089.4774169921875,431.5550842285156,17.385000228881836,-1012.2340087890625,13.29800033569336,2023-04-20T08:29:42.372806
4119.27685546875,152.2060546875,1124.4774169921875,606.5551147460938,16.5310001373291,-1009.4280395507812,14.27400016784668,2023-04-20T08:29:42.380012
4119.28466796875,152.2060546875,1194.4774169921875,676.5551147460938,14.579000473022461,-1010.0989990234375,13.359000205993652,2023-04-20T08:29:42.389731
4119.29296875,397.2060546875,1089.4774169921875,746.5551147460938,13.420000076293945,-1010.2210083007812,14.0910005569458,2023-04-20T08:29:42.396828
4119.30078125,362.2060546875,1089.4774169921875,816.5551147460938,12.383000373840332,-1009.3670043945312,15.128000259399414,2023-04-20T08:29:42.407798
4119.30908203125,467.2060546875,914.4773559570312,886.5551147460938,10.248000144958496,-1008.3300170898438,14.579000473022461,2023-04-20T08:29:42.412944
4119.31689453125,432.2060546875,809.4773559570312,991.5551147460938,10.065000534057617,-1007.9639892578125,15.677000045776367,2023-04-20T08:29:42.419077
4119.32470703125,537.2060546875,529.4773559570312,956.5551147460938,9.211000442504883,-1008.4520263671875,16.714000701904297,2023-04-20T08:29:42.427335
4119.3330078125,432.2060546875,389.47735595703125,991.5551147460938,8.60099983215332,-1007.7200317382812,18.482999801635742,2023-04-20T08:29:42.441182
4119.3408203125,362.2060546875,214.47735595703125,1061.5550537109375,8.418000221252441,-1008.1470336914062,18.97100067138672,2023-04-20T08:29:42.444285
4119.34912109375,432.2060546875,39.47735595703125,1131.5550537109375,9.272000312805176,-1006.6829833984375,19.703001022338867,2023-04-20T08:29:42.451457
4119.35693359375,187.2060546875,-65.52264404296875,1236.5550537109375,10.003999710083008,-1005.5239868164062,19.21500015258789,2023-04-20T08:29:42.459774
4119.36474609375,222.2060546875,-100.52264404296875,1201.5550537109375,10.248000144958496,-1004.426025390625,20.679000854492188,2023-04-20T08:29:42.468482
4119.373046875,-57.7939453125,-30.52264404296875,1026.5550537109375,13.114999771118164,-1004.1210327148438,19.520000457763672,2023-04-20T08:29:42.475190
4119.380859375,-337.7939453125,39.47735595703125,781.5551147460938,11.895000457763672,-1005.4020385742188,19.703001022338867,2023-04-20T08:29:42.484757
4119.388671875,-337.7939453125,74.47735595703125,676.5551147460938,13.359000205993652,-1006.1950073242188,19.58099937438965,2023-04-20T08:29:42.490759
4119.39697265625,-547.7939453125,249.47735595703125,466.5550842285156,15.006000518798828,-1005.64599609375,19.825000762939453,2023-04-20T08:29:42.503086
4119.40478515625,-547.7939453125,424.47735595703125,256.5550842285156,13.237000465393066,-1004.7919921875,18.482999801635742,2023-04-20T08:29:42.509593
4119.41259765625,-617.7939453125,494.47735595703125,186.5550994873047,11.834000587463379,-1007.2319946289062,20.130001068115234,2023-04-20T08:29:42.515867
4119.4208984375,-477.7939453125,634.4773559570312,81.55509185791016,10.248000144958496,-1012.2340087890625,18.97100067138672,2023-04-20T08:29:42.525611
4119.4287109375,-267.7939453125,739.4773559570312,81.55509185791016,10.736000061035156,-1013.27099609375,20.5570011138916,2023-04-20T08:29:42.537093
4119.43701171875,-162.7939453125,844.4773559570312,186.5550994873047,10.79699993133545,-1012.2949829101562,19.15399932861328,2023-04-20T08:29:42.540460
4119.44482421875,152.2060546875,669.4773559570312,431.5550842285156,10.918999671936035,-1007.35400390625,18.30000114440918,2023-04-20T08:29:42.548857
4119.453125,117.2060546875,739.4773559570312,466.5550842285156,11.10200023651123,-1004.9750366210938,18.97100067138672,2023-04-20T08:29:42.555865
4119.4609375,-162.7939453125,774.4773559570312,501.5550842285156,11.834000587463379,-1002.3519897460938,17.26300048828125,2023-04-20T08:29:42.568361
4119.46875,-652.7939453125,914.4773559570312,536.5551147460938,12.565999984741211,-1007.35400390625,18.117000579833984,2023-04-20T08:29:42.572474
4119.47705078125,-757.7939453125,844.4773559570312,501.5550842285156,11.223999977111816,-1008.9400024414062,15.371999740600586,2023-04-20T08:29:42.579567
4119.48486328125,-862.7939453125,774.4773559570312,536.5551147460938,10.736000061035156,-1012.051025390625,16.652999877929688,2023-04-20T08:29:42.587566
4119.49267578125,-722.7939453125,564.4773559570312,466.5550842285156,9.63800048828125,-1014.9180297851562,16.469999313354492,2023-04-20T08:29:42.596738
4119.5009765625,-547.7939453125,494.47735595703125,431.5550842285156,10.736000061035156,-1016.0770263671875,15.73799991607666,2023-04-20T08:29:42.604850
4119.5087890625,-197.7939453125,354.47735595703125,396.5550842285156,11.711999893188477,-1016.4429931640625,16.104000091552734,2023-04-20T08:29:42.614118
4119.5166015625,222.2060546875,249.47735595703125,431.5550842285156,13.114999771118164,-1015.1010131835938,17.26300048828125,2023-04-20T08:29:42.622477
4119.52490234375,222.2060546875,319.47735595703125,536.5551147460938,13.480999946594238,-1014.125,17.019001007080078,2023-04-20T08:29:42.627672
4119.53271484375,467.2060546875,389.47735595703125,746.5551147460938,14.335000038146973,-1010.0380249023438,17.20199966430664,2023-04-20T08:29:42.635685
4119.541015625,502.2060546875,599.4773559570312,921.5551147460938,14.518000602722168,-1008.2689819335938,18.482999801635742,2023-04-20T08:29:42.647104
4119.548828125,362.2060546875,634.4773559570312,991.5551147460938,12.871000289916992,-1008.0250244140625,17.873001098632812,2023-04-20T08:29:42.651327
4119.556640625,327.2060546875,704.4773559570312,1201.5550537109375,11.834000587463379,-1008.0250244140625,18.788000106811523,2023-04-20T08:29:42.659455
4119.56494140625,292.2060546875,774.4773559570312,1271.5550537109375,10.187000274658203,-1008.3300170898438,18.055999755859375,2023-04-20T08:29:42.668117
4119.57275390625,292.2060546875,739.4773559570312,1446.5550537109375,9.272000312805176,-1006.7440185546875,19.2760009765625,2023-04-20T08:29:42.675696
4119.5810546875,222.2060546875,739.4773559570312,1481.5550537109375,8.539999961853027,-1006.3779907226562,18.17799949645996,2023-04-20T08:29:42.683922
4119.5888671875,257.2060546875,704.4773559570312,1341.5550537109375,7.991000175476074,-1005.64599609375,18.726999282836914,2023-04-20T08:29:42.694386
4119.59716796875,82.2060546875,634.4773559570312,1306.5550537109375,7.808000087738037,-1003.7550048828125,18.54400062561035,2023-04-20T08:29:42.700390
4119.60498046875,-127.7939453125,599.4773559570312,1026.5550537109375,8.418000221252441,-1004.7919921875,20.496000289916992,2023-04-20T08:29:42.712500
4119.61279296875,-127.7939453125,494.47735595703125,921.5551147460938,9.15000057220459,-1004.85302734375,18.849000930786133,2023-04-20T08:29:42.715816
4119.62109375,-372.7939453125,564.4773559570312,676.5551147460938,7.625,-1005.218994140625,20.130001068115234,2023-04-20T08:29:42.726704
4119.62890625,-512.7939453125,564.4773559570312,431.5550842285156,10.065000534057617,-1006.5,19.031999588012695,2023-04-20T08:29:42.731747
4119.63671875,-582.7939453125,599.4773559570312,361.5550842285156,7.930000305175781,-1007.1710205078125,20.069000244140625,2023-04-20T08:29:42.745304
4119.64501953125,-722.7939453125,669.4773559570312,151.5550994873047,8.723000526428223,-1007.0490112304688,17.750999450683594,2023-04-20T08:29:42.748305
4119.65283203125,-722.7939453125,704.4773559570312,46.555091857910156,10.065000534057617,-1007.7200317382812,17.323999404907227,2023-04-20T08:29:42.758766
4119.66064453125,-757.7939453125,774.4773559570312,-23.444908142089844,10.61400032043457,-1009.6110229492188,18.482999801635742,2023-04-20T08:29:42.763766
4119.6689453125,-722.7939453125,914.4773559570312,-128.4449005126953,10.675000190734863,-1010.1600341796875,16.836000442504883,2023-04-20T08:29:42.779403
4119.6767578125,-722.7939453125,949.4773559570312,-128.4449005126953,11.28499984741211,-1010.8920288085938,15.677000045776367,2023-04-20T08:29:42.782977
4119.68505859375,-442.7939453125,949.4773559570312,-268.4449157714844,12.07800006866455,-1011.197021484375,16.28700065612793,2023-04-20T08:29:42.790251
4119.69287109375,-267.7939453125,984.4773559570312,-268.4449157714844,12.444000244140625,-1010.9530029296875,16.165000915527344,2023-04-20T08:29:42.795258
4119.70068359375,-162.7939453125,1019.4773559570312,-373.4449157714844,12.932000160217285,-1011.3800048828125,16.714000701904297,2023-04-20T08:29:42.809079
4119.708984375,-57.7939453125,1089.4774169921875,-268.4449157714844,12.932000160217285,-1010.1600341796875,15.677000045776367,2023-04-20T08:29:42.811082
4119.716796875,-57.7939453125,1089.4774169921875,-233.4449005126953,13.176000595092773,-1011.8070068359375,16.104000091552734,2023-04-20T08:29:42.820369
4119.724609375,82.2060546875,1019.4773559570312,-198.4449005126953,11.956000328063965,-1011.6240234375,16.89699935913086,2023-04-20T08:29:42.828864
4119.73291015625,82.2060546875,1124.4774169921875,-163.4449005126953,12.138999938964844,-1010.4039916992188,15.067000389099121,2023-04-20T08:29:42.839061
4119.74072265625,47.2060546875,1089.4774169921875,-93.44490814208984,12.07800006866455,-1009.9769897460938,17.690000534057617,2023-04-20T08:29:42.846614
4119.7490234375,82.2060546875,1054.4774169921875,-23.444908142089844,12.993000030517578,-1010.4039916992188,16.042999267578125,2023-04-20T08:29:42.850733
4119.7568359375,-57.7939453125,1054.4774169921875,46.555091857910156,11.956000328063965,-1010.0989990234375,17.873001098632812,2023-04-20T08:29:42.859814
4119.76513671875,82.2060546875,984.4773559570312,151.5550994873047,13.237000465393066,-1009.916015625,17.26300048828125,2023-04-20T08:29:42.867048
4119.77294921875,-22.7939453125,984.4773559570312,186.5550994873047,12.322000503540039,-1010.1600341796875,18.482999801635742,2023-04-20T08:29:42.876563
4119.78076171875,47.2060546875,879.4773559570312,221.5550994873047,12.444000244140625,-1010.8309936523438,16.28700065612793,2023-04-20T08:29:42.883761
4119.7890625,12.206053733825684,914.4773559570312,291.5550842285156,12.749000549316406,-1009.2449951171875,17.750999450683594,2023-04-20T08:29:42.890849
4119.796875,47.2060546875,809.4773559570312,361.5550842285156,12.322000503540039,-1008.1470336914062,18.361000061035156,2023-04-20T08:29:42.898977
4119.8046875,-57.7939453125,739.4773559570312,396.5550842285156,12.8100004196167,-1007.2930297851562,17.446001052856445,2023-04-20T08:29:42.908401
4119.81298828125,-127.7939453125,774.4773559570312,396.5550842285156,11.223999977111816,-1008.2689819335938,17.385000228881836,2023-04-20T08:29:42.918009
4119.82080078125,-127.7939453125,669.4773559570312,431.5550842285156,12.383000373840332,-1008.5740356445312,16.5310001373291,2023-04-20T08:29:42.923009
4119.8291015625,-232.7939453125,564.4773559570312,396.5550842285156,10.553000450134277,-1010.0989990234375,17.20199966430664,2023-04-20T08:29:42.935796
4119.8369140625,-232.7939453125,529.4773559570312,431.5550842285156,9.881999969482422,-1009.3060302734375,16.652999877929688,2023-04-20T08:29:42.943796
4119.8447265625,-197.7939453125,424.47735595703125,606.5551147460938,11.163000106811523,-1008.0250244140625,17.323999404907227,2023-04-20T08:29:42.948979
4119.85302734375,-232.7939453125,354.47735595703125,606.5551147460938,11.956000328063965,-1007.842041015625,18.482999801635742,2023-04-20T08:29:42.957028
4119.86083984375,-197.7939453125,389.47735595703125,676.5551147460938,11.10200023651123,-1008.5130004882812,17.385000228881836,2023-04-20T08:29:42.967125
4119.86865234375,-232.7939453125,354.47735595703125,641.5551147460938,13.541999816894531,-1007.842041015625,15.921000480651855,2023-04-20T08:29:42.972475
4119.876953125,-197.7939453125,389.47735595703125,676.5551147460938,14.640000343322754,-1008.9400024414062,17.506999969482422,2023-04-20T08:29:42.980087
4119.884765625,-302.7939453125,424.47735595703125,641.5551147460938,14.152000427246094,-1009.5499877929688,16.59200096130371,2023-04-20T08:29:42.987584
4119.892578125,-162.7939453125,459.47735595703125,746.5551147460938,14.152000427246094,-1010.5870361328125,17.323999404907227,2023-04-20T08:29:42.997095
4119.90087890625,-162.7939453125,564.4773559570312,711.5551147460938,15.371999740600586,-1009.6719970703125,17.873001098632812,2023-04-20T08:29:43.004286
4119.90869140625,-127.7939453125,599.4773559570312,746.5551147460938,15.616000175476074,-1009.06201171875,17.690000534057617,2023-04-20T08:29:43.014637
4119.9169921875,47.2060546875,599.4773559570312,746.5551147460938,15.371999740600586,-1010.0989990234375,18.30000114440918,2023-04-20T08:29:43.022412
4119.9248046875,-22.7939453125,669.4773559570312,711.5551147460938,15.677000045776367,-1010.2210083007812,17.506999969482422,2023-04-20T08:29:43.028920
4119.9326171875,82.2060546875,774.4773559570312,816.5551147460938,13.78600025177002,-1008.4520263671875,19.15399932861328,2023-04-20T08:29:43.037702
4119.94091796875,12.206053733825684,879.4773559570312,816.5551147460938,12.444000244140625,-1009.06201171875,19.15399932861328,2023-04-20T08:29:43.047848
4119.94873046875,47.2060546875,949.4773559570312,781.5551147460938,12.871000289916992,-1008.9400024414062,18.23900032043457,2023-04-20T08:29:43.052847
4119.95703125,-22.7939453125,1019.4773559570312,746.5551147460938,12.07800006866455,-1007.4760131835938,18.54400062561035,2023-04-20T08:29:43.061325
4119.96484375,-57.7939453125,1054.4774169921875,606.5551147460938,12.687999725341797,-1006.8049926757812,18.17799949645996,2023-04-20T08:29:43.069452
4119.97265625,-127.7939453125,984.4773559570312,571.5551147460938,11.468000411987305,-1007.4760131835938,17.506999969482422,2023-04-20T08:29:43.079869
4119.98095703125,-197.7939453125,1019.4773559570312,431.5550842285156,10.309000015258789,-1009.2449951171875,15.798999786376953,2023-04-20T08:29:43.084402
4119.98876953125,-92.7939453125,914.4773559570312,361.5550842285156,10.309000015258789,-1011.135986328125,16.22599983215332,2023-04-20T08:29:43.092836
4119.9970703125,-162.7939453125,949.4773559570312,466.5550842285156,10.187000274658203,-1009.3060302734375,16.774999618530273,2023-04-20T08:29:43.100955
4120.0048828125,-22.7939453125,879.4773559570312,431.5550842285156,11.468000411987305,-1008.4520263671875,15.433000564575195,2023-04-20T08:29:43.111604
4120.0126953125,-22.7939453125,879.4773559570312,431.5550842285156,10.065000534057617,-1008.3909912109375,15.921000480651855,2023-04-20T08:29:43.115904
4120.02099609375,82.2060546875,774.4773559570312,221.5550994873047,11.223999977111816,-1009.9769897460938,16.104000091552734,2023-04-20T08:29:43.124768
4120.02880859375,292.2060546875,599.4773559570312,-23.444908142089844,10.553000450134277,-1009.3670043945312,17.9950008392334,2023-04-20T08:29:43.131769
4120.03662109375,362.2060546875,529.4773559570312,-58.444908142089844,12.138999938964844,-1010.77001953125,16.714000701904297,2023-04-20T08:29:43.143731
4120.044921875,502.2060546875,249.47735595703125,-93.44490814208984,11.77299976348877,-1006.927001953125,17.446001052856445,2023-04-20T08:29:43.148961
4120.052734375,502.2060546875,319.47735595703125,46.555091857910156,11.59000015258789,-1006.8049926757812,19.21500015258789,2023-04-20T08:29:43.156120
4120.06103515625,502.2060546875,249.47735595703125,116.55509185791016,8.661999702453613,-1007.9639892578125,20.19099998474121,2023-04-20T08:29:43.164314
4120.06884765625,222.2060546875,249.47735595703125,396.5550842285156,9.211000442504883,-1010.5260009765625,21.5939998626709,2023-04-20T08:29:43.175805
4120.07666015625,47.2060546875,214.47735595703125,781.5551147460938,10.980000495910645,-1012.5390014648438,20.312999725341797,2023-04-20T08:29:43.180867
4120.0849609375,152.2060546875,284.47735595703125,956.5551147460938,10.61400032043457,-1010.4039916992188,18.90999984741211,2023-04-20T08:29:43.188067
4120.0927734375,-197.7939453125,319.47735595703125,1096.5550537109375,13.114999771118164,-1004.5480346679688,19.093000411987305,2023-04-20T08:29:43.195071
4120.10107421875,-477.7939453125,354.47735595703125,921.5551147460938,14.944999694824219,-1002.5960083007812,20.618000030517578,2023-04-20T08:29:43.206084
4120.10888671875,-652.7939453125,424.47735595703125,746.5551147460938,14.395999908447266,-1003.9990234375,20.434999465942383,2023-04-20T08:29:43.213086
4120.11669921875,-1002.7939453125,494.47735595703125,326.5550842285156,15.189000129699707,-1007.35400390625,20.434999465942383,2023-04-20T08:29:43.220395
4120.125,-862.7939453125,599.4773559570312,-23.444908142089844,15.555000305175781,-1009.489013671875,16.28700065612793,2023-04-20T08:29:43.227394
4120.1328125,-897.7939453125,599.4773559570312,-163.4449005126953,14.579000473022461,-1010.8309936523438,17.93400001525879,2023-04-20T08:29:43.240633
4120.140625,-792.7939453125,774.4773559570312,-268.4449157714844,16.104000091552734,-1013.759033203125,17.812000274658203,2023-04-20T08:29:43.243983
4120.14892578125,-757.7939453125,879.4773559570312,-268.4449157714844,15.860000610351562,-1011.989990234375,16.89699935913086,2023-04-20T08:29:43.251210
4120.15673828125,-477.7939453125,1019.4773559570312,-233.4449005126953,15.25,-1012.051025390625,16.59200096130371,2023-04-20T08:29:43.259210
4120.1650390625,-232.7939453125,1054.4774169921875,-58.444908142089844,15.371999740600586,-1012.9660034179688,16.5310001373291,2023-04-20T08:29:43.271001
4120.1728515625,-232.7939453125,1159.4774169921875,46.555091857910156,16.347999572753906,-1011.6240234375,17.079999923706055,2023-04-20T08:29:43.277303
4120.1806640625,-92.7939453125,1299.4774169921875,291.5550842285156,15.433000564575195,-1008.8179931640625,15.860000610351562,2023-04-20T08:29:43.283589
4120.18896484375,-127.7939453125,1299.4774169921875,466.5550842285156,14.395999908447266,-1010.4650268554688,14.640000343322754,2023-04-20T08:29:43.291040
4120.19677734375,47.2060546875,1159.4774169921875,501.5550842285156,13.907999992370605,-1010.4650268554688,14.76200008392334,2023-04-20T08:29:43.304014
4120.205078125,117.2060546875,1124.4774169921875,641.5551147460938,10.980000495910645,-1011.197021484375,14.518000602722168,2023-04-20T08:29:43.307650
4120.212890625,187.2060546875,914.4773559570312,711.5551147460938,11.77299976348877,-1012.1119995117188,16.347999572753906,2023-04-20T08:29:43.316069
4120.220703125,327.2060546875,774.4773559570312,781.5551147460938,10.248000144958496,-1012.1119995117188,15.677000045776367,2023-04-20T08:29:43.324210
4120.22900390625,397.2060546875,599.4773559570312,921.5551147460938,10.12600040435791,-1008.2080078125,16.165000915527344,2023-04-20T08:29:43.332336
4120.23681640625,502.2060546875,424.47735595703125,991.5551147460938,9.760000228881836,-1007.5369873046875,16.714000701904297,2023-04-20T08:29:43.339515
4120.24462890625,397.2060546875,319.47735595703125,1026.5550537109375,9.211000442504883,-1007.0490112304688,17.019001007080078,2023-04-20T08:29:43.347984
4120.2529296875,397.2060546875,109.47735595703125,1026.5550537109375,10.430999755859375,-1006.927001953125,17.628999710083008,2023-04-20T08:29:43.355473
4120.2607421875,222.2060546875,74.47735595703125,991.5551147460938,11.407000541687012,-1006.8660278320312,17.628999710083008,2023-04-20T08:29:43.367295
4120.26904296875,152.2060546875,-30.52264404296875,1026.5550537109375,11.28499984741211,-1006.927001953125,18.482999801635742,2023-04-20T08:29:43.374150
4120.27685546875,187.2060546875,-65.52264404296875,886.5551147460938,12.138999938964844,-1006.0120239257812,19.88599967956543,2023-04-20T08:29:43.378723
4120.28466796875,-57.7939453125,-30.52264404296875,816.5551147460938,13.176000595092773,-1007.9030151367188,18.361000061035156,2023-04-20T08:29:43.388302
4120.29296875,-92.7939453125,4.477356910705566,676.5551147460938,13.176000595092773,-1008.7570190429688,18.666000366210938,2023-04-20T08:29:43.405389
4120.30078125,-197.7939453125,109.47735595703125,536.5551147460938,14.029999732971191,-1008.2080078125,19.642000198364258,2023-04-20T08:29:43.409275
4120.30859375,-162.7939453125,214.47735595703125,536.5551147460938,14.152000427246094,-1005.8290405273438,19.520000457763672,2023-04-20T08:29:43.416457
4120.31689453125,-162.7939453125,319.47735595703125,431.5550842285156,12.749000549316406,-1005.8290405273438,20.19099998474121,2023-04-20T08:29:43.419786
4120.32470703125,-127.7939453125,424.47735595703125,326.5550842285156,12.017000198364258,-1010.708984375,19.21500015258789,2023-04-20T08:29:43.430472
4120.3330078125,-22.7939453125,459.47735595703125,396.5550842285156,13.725000381469727,-1011.5020141601562,20.679000854492188,2023-04-20T08:29:43.436550
4120.3408203125,117.2060546875,599.4773559570312,466.5550842285156,13.725000381469727,-1011.135986328125,20.434999465942383,2023-04-20T08:29:43.447736
4120.3486328125,292.2060546875,739.4773559570312,571.5551147460938,13.725000381469727,-1006.2559814453125,20.374000549316406,2023-04-20T08:29:43.450979
4120.35693359375,152.2060546875,809.4773559570312,711.5551147460938,13.602999687194824,-1003.510986328125,19.88599967956543,2023-04-20T08:29:43.460063
4120.36474609375,-127.7939453125,1019.4773559570312,676.5551147460938,15.067000389099121,-1002.4739990234375,20.312999725341797,2023-04-20T08:29:43.468190
4120.373046875,-372.7939453125,1124.4774169921875,641.5551147460938,13.968999862670898,-1004.364990234375,20.312999725341797,2023-04-20T08:29:43.479932
4120.380859375,-652.7939453125,1299.4774169921875,571.5551147460938,13.78600025177002,-1006.6829833984375,18.90999984741211,2023-04-20T08:29:43.483933
4120.388671875,-652.7939453125,1334.4774169921875,641.5551147460938,12.07800006866455,-1010.8309936523438,17.446001052856445,2023-04-20T08:29:43.493533
4120.39697265625,-722.7939453125,1369.4774169921875,606.5551147460938,11.834000587463379,-1011.0750122070312,18.90999984741211,2023-04-20T08:29:43.499721
4120.40478515625,-512.7939453125,1194.4774169921875,501.5550842285156,9.881999969482422,-1016.3820190429688,17.93400001525879,2023-04-20T08:29:43.512706
4120.41259765625,-232.7939453125,1124.4774169921875,536.5551147460938,10.430999755859375,-1014.97900390625,18.666000366210938,2023-04-20T08:29:43.515983
4120.4208984375,-127.7939453125,1089.4774169921875,501.5550842285156,10.980000495910645,-1014.7349853515625,17.873001098632812,2023-04-20T08:29:43.526590
4120.4287109375,47.2060546875,984.4773559570312,676.5551147460938,12.07800006866455,-1012.2949829101562,17.141000747680664,2023-04-20T08:29:43.534709
4120.43701171875,12.206053733825684,949.4773559570312,781.5551147460938,12.444000244140625,-1008.1470336914062,16.89699935913086,2023-04-20T08:29:43.538764
4120.44482421875,117.2060546875,914.4773559570312,851.5551147460938,10.61400032043457,-1007.1710205078125,18.361000061035156,2023-04-20T08:29:43.547840
4120.45263671875,-57.7939453125,879.4773559570312,921.5551147460938,8.60099983215332,-1007.9030151367188,18.23900032043457,2023-04-20T08:29:43.556472
4120.4609375,-22.7939453125,739.4773559570312,1061.5550537109375,11.651000022888184,-1006.134033203125,17.26300048828125,2023-04-20T08:29:43.565930
4120.46875,-57.7939453125,669.4773559570312,1096.5550537109375,10.248000144958496,-1006.1950073242188,16.409000396728516,2023-04-20T08:29:43.571461
4120.47705078125,-232.7939453125,529.4773559570312,886.5551147460938,9.08899974822998,-1005.8290405273438,16.22599983215332,2023-04-20T08:29:43.579048
4120.48486328125,-197.7939453125,459.47735595703125,956.5551147460938,8.60099983215332,-1007.4150390625,16.836000442504883,2023-04-20T08:29:43.588900
4120.49267578125,-267.7939453125,354.47735595703125,851.5551147460938,8.845000267028809,-1007.2930297851562,17.079999923706055,2023-04-20T08:29:43.595109
4120.5009765625,-302.7939453125,144.47735595703125,781.5551147460938,7.320000171661377,-1007.6589965820312,17.20199966430664,2023-04-20T08:29:43.608627
4120.5087890625,-337.7939453125,109.47735595703125,781.5551147460938,7.503000259399414,-1006.2559814453125,16.774999618530273,2023-04-20T08:29:43.612694
4120.51708984375,-337.7939453125,39.47735595703125,746.5551147460938,8.60099983215332,-1007.35400390625,17.56800079345703,2023-04-20T08:29:43.618824
4120.52490234375,-442.7939453125,4.477356910705566,676.5551147460938,5.551000118255615,-1008.8179931640625,17.26300048828125,2023-04-20T08:29:43.627339
4120.53271484375,-407.7939453125,-65.52264404296875,606.5551147460938,7.86899995803833,-1007.9030151367188,15.371999740600586,2023-04-20T08:29:43.641666
4120.541015625,-407.7939453125,-100.52264404296875,501.5550842285156,9.881999969482422,-1008.5740356445312,16.5310001373291,2023-04-20T08:29:43.644034
4120.548828125,-477.7939453125,-30.52264404296875,396.5550842285156,8.723000526428223,-1008.2689819335938,16.774999618530273,2023-04-20T08:29:43.652686
4120.556640625,-337.7939453125,-100.52264404296875,291.5550842285156,9.57699966430664,-1007.6589965820312,16.652999877929688,2023-04-20T08:29:43.658691
4120.56494140625,-337.7939453125,-65.52264404296875,151.5550994873047,9.760000228881836,-1007.1099853515625,15.860000610351562,2023-04-20T08:29:43.672293
4120.57275390625,-337.7939453125,4.477356910705566,11.555092811584473,12.138999938964844,-1008.2080078125,17.506999969482422,2023-04-20T08:29:43.675339
4120.5810546875,-302.7939453125,39.47735595703125,11.555092811584473,12.871000289916992,-1009.9769897460938,16.59200096130371,2023-04-20T08:29:43.684448
4120.5888671875,-302.7939453125,74.47735595703125,-58.444908142089844,12.07800006866455,-1011.3190307617188,16.836000442504883,2023-04-20T08:29:43.692450
4120.5966796875,-232.7939453125,179.47735595703125,-58.444908142089844,12.322000503540039,-1011.135986328125,18.17799949645996,2023-04-20T08:29:43.704058
4120.60498046875,-232.7939453125,214.47735595703125,-23.444908142089844,12.505000114440918,-1009.8550415039062,16.28700065612793,2023-04-20T08:29:43.707623
4120.61279296875,-57.7939453125,214.47735595703125,46.555091857910156,10.675000190734863,-1010.0989990234375,17.26300048828125,2023-04-20T08:29:43.716387
4120.62060546875,-57.7939453125,214.47735595703125,46.555091857910156,10.918999671936035,-1009.5499877929688,17.812000274658203,2023-04-20T08:29:43.723385
4120.62890625,117.2060546875,354.47735595703125,81.55509185791016,12.8100004196167,-1008.635009765625,18.30000114440918,2023-04-20T08:29:43.738140
4120.63671875,187.2060546875,354.47735595703125,46.555091857910156,12.565999984741211,-1006.6220092773438,17.93400001525879,2023-04-20T08:29:43.741263
4120.64501953125,152.2060546875,284.47735595703125,46.555091857910156,13.541999816894531,-1008.0250244140625,17.9950008392334,2023-04-20T08:29:43.747432
4120.65283203125,82.2060546875,319.47735595703125,81.55509185791016,14.579000473022461,-1007.4150390625,17.93400001525879,2023-04-20T08:29:43.754674
4120.66064453125,-22.7939453125,354.47735595703125,151.5550994873047,15.25,-1006.927001953125,18.849000930786133,2023-04-20T08:29:43.767707
4120.6689453125,-57.7939453125,354.47735595703125,81.55509185791016,12.199999809265137,-1007.5369873046875,19.031999588012695,2023-04-20T08:29:43.774114
4120.6767578125,-162.7939453125,284.47735595703125,151.5550994873047,11.223999977111816,-1010.8920288085938,18.117000579833984,2023-04-20T08:29:43.781267
4120.68505859375,-232.7939453125,179.47735595703125,291.5550842285156,10.857999801635742,-1011.56298828125,16.774999618530273,2023-04-20T08:29:43.787376
4120.69287109375,-232.7939453125,144.47735595703125,361.5550842285156,9.63800048828125,-1009.916015625,17.019001007080078,2023-04-20T08:29:43.794657
4120.70068359375,-197.7939453125,-30.52264404296875,466.5550842285156,10.79699993133545,-1009.7940063476562,17.20199966430664,2023-04-20T08:29:43.804161
4120.708984375,-197.7939453125,-170.52264404296875,501.5550842285156,11.59000015258789,-1011.6240234375,18.30000114440918,2023-04-20T08:29:43.816132
4120.716796875,-267.7939453125,-205.52264404296875,536.5551147460938,12.626999855041504,-1010.5260009765625,17.385000228881836,2023-04-20T08:29:43.818356
4120.72509765625,-92.7939453125,-240.52264404296875,431.5550842285156,12.565999984741211,-1008.3300170898438,15.982000350952148,2023-04-20T08:29:43.829110
4120.73291015625,-127.7939453125,-240.52264404296875,431.5550842285156,14.0910005569458,-1009.3670043945312,18.54400062561035,2023-04-20T08:29:43.835507
4120.74072265625,47.2060546875,-310.52264404296875,326.5550842285156,13.602999687194824,-1008.8179931640625,18.666000366210938,2023-04-20T08:29:43.849158
4120.7490234375,82.2060546875,-170.52264404296875,326.5550842285156,12.871000289916992,-1008.3300170898438,19.15399932861328,2023-04-20T08:29:43.852287
4120.7568359375,47.2060546875,-205.52264404296875,256.5550842285156,14.456999778747559,-1008.1470336914062,19.703001022338867,2023-04-20T08:29:43.860863
4120.7646484375,47.2060546875,-65.52264404296875,291.5550842285156,13.968999862670898,-1007.5980224609375,18.422000885009766,2023-04-20T08:29:43.867900
4120.77294921875,-22.7939453125,4.477356910705566,291.5550842285156,13.480999946594238,-1009.3670043945312,19.15399932861328,2023-04-20T08:29:43.879806
4120.78076171875,-57.7939453125,39.47735595703125,256.5550842285156,14.640000343322754,-1010.281982421875,18.788000106811523,2023-04-20T08:29:43.883938
4120.7890625,-92.7939453125,214.47735595703125,326.5550842285156,14.518000602722168,-1009.0010375976562,19.093000411987305,2023-04-20T08:29:43.893055
4120.796875,-92.7939453125,179.47735595703125,326.5550842285156,13.480999946594238,-1008.4520263671875,19.94700050354004,2023-04-20T08:29:43.900551
4120.8046875,-57.7939453125,144.47735595703125,291.5550842285156,13.847000122070312,-1007.4760131835938,20.98400115966797,2023-04-20T08:29:43.912274
4120.81298828125,-92.7939453125,249.47735595703125,326.5550842285156,13.053999900817871,-1007.2319946289062,19.763999938964844,2023-04-20T08:29:43.915696
4120.82080078125,-127.7939453125,249.47735595703125,256.5550842285156,14.0910005569458,-1007.4150390625,18.97100067138672,2023-04-20T08:29:43.926258
4120.82861328125,-197.7939453125,319.47735595703125,326.5550842285156,14.335000038146973,-1008.6959838867188,20.19099998474121,2023-04-20T08:29:43.933259
4120.8369140625,-162.7939453125,319.47735595703125,256.5550842285156,13.29800033569336,-1006.3779907226562,17.446001052856445,2023-04-20T08:29:43.938936
4120.8447265625,-302.7939453125,284.47735595703125,221.5550994873047,12.749000549316406,-1005.5239868164062,18.117000579833984,2023-04-20T08:29:43.948391
4120.85302734375,-442.7939453125,319.47735595703125,46.555091857910156,14.0910005569458,-1005.0360107421875,18.54400062561035,2023-04-20T08:29:43.956926
4120.86083984375,-442.7939453125,459.47735595703125,-58.444908142089844,12.871000289916992,-1008.0250244140625,19.763999938964844,2023-04-20T08:29:43.965264
4120.86865234375,-512.7939453125,459.47735595703125,-58.444908142089844,12.138999938964844,-1009.5499877929688,17.26300048828125,2023-04-20T08:29:43.976790
4120.876953125,-442.7939453125,634.4773559570312,-93.44490814208984,12.26099967956543,-1013.27099609375,17.323999404907227,2023-04-20T08:29:43.981131
4120.884765625,-267.7939453125,669.4773559570312,11.555092811584473,14.883999824523926,-1010.6480102539062,17.56800079345703,2023-04-20T08:29:43.988369
4120.89306640625,-127.7939453125,669.4773559570312,-93.44490814208984,14.579000473022461,-1009.3060302734375,17.079999923706055,2023-04-20T08:29:43.995381
4120.90087890625,-162.7939453125,739.4773559570312,-303.4449157714844,13.78600025177002,-1008.8790283203125,17.323999404907227,2023-04-20T08:29:44.006494
4120.90869140625,-302.7939453125,809.4773559570312,-408.4449157714844,14.579000473022461,-1012.2340087890625,15.128000259399414,2023-04-20T08:29:44.013834
4120.9169921875,-162.7939453125,774.4773559570312,-443.4449157714844,14.27400016784668,-1012.905029296875,16.652999877929688,2023-04-20T08:29:44.020151
4120.9248046875,12.206053733825684,704.4773559570312,-443.4449157714844,12.199999809265137,-1007.842041015625,15.616000175476074,2023-04-20T08:29:44.026777
4120.9326171875,152.2060546875,564.4773559570312,-408.4449157714844,12.322000503540039,-1004.6090087890625,16.042999267578125,2023-04-20T08:29:44.041300
4120.94091796875,222.2060546875,459.47735595703125,-408.4449157714844,9.821000099182129,-1003.083984375,17.9950008392334,2023-04-20T08:29:44.043670
4120.94873046875,187.2060546875,284.47735595703125,-268.4449157714844,8.661999702453613,-1007.1710205078125,18.23900032043457,2023-04-20T08:29:44.051927
4120.95703125,152.2060546875,249.47735595703125,-198.4449005126953,8.906000137329102,-1009.6110229492188,17.93400001525879,2023-04-20T08:29:44.059056
4120.96484375,82.2060546875,144.47735595703125,-93.44490814208984,9.699000358581543,-1013.0880126953125,18.30000114440918,2023-04-20T08:29:44.072803
4120.97265625,222.2060546875,4.477356910705566,221.5550994873047,11.77299976348877,-1010.5260009765625,17.20199966430664,2023-04-20T08:29:44.076181
4120.98095703125,82.2060546875,-30.52264404296875,291.5550842285156,11.041000366210938,-1006.3779907226562,17.93400001525879,2023-04-20T08:29:44.084997
4120.98876953125,-57.7939453125,-30.52264404296875,46.555091857910156,14.213000297546387,-1003.8770141601562,18.055999755859375,2023-04-20T08:29:44.091414
4120.99658203125,-512.7939453125,39.47735595703125,-268.4449157714844,17.628999710083008,-1005.9509887695312,18.23900032043457,2023-04-20T08:29:44.105486
4121.0048828125,-722.7939453125,74.47735595703125,-513.4448852539062,18.849000930786133,-1007.2319946289062,17.812000274658203,2023-04-20T08:29:44.107886
4121.0126953125,-757.7939453125,109.47735595703125,-758.4448852539062,18.90999984741211,-1010.77001953125,17.446001052856445,2023-04-20T08:29:44.117845
4121.02099609375,-687.7939453125,319.47735595703125,-933.4448852539062,19.58099937438965,-1012.2949829101562,18.97100067138672,2023-04-20T08:29:44.123047
4121.02880859375,-442.7939453125,389.47735595703125,-968.4448852539062,19.520000457763672,-1013.1489868164062,18.23900032043457,2023-04-20T08:29:44.139616
4121.037109375,-232.7939453125,599.4773559570312,-933.4448852539062,21.777000427246094,-1011.8070068359375,19.093000411987305,2023-04-20T08:29:44.140677
4121.044921875,-57.7939453125,774.4773559570312,-933.4448852539062,21.16699981689453,-1010.5260009765625,18.361000061035156,2023-04-20T08:29:44.149835
4121.052734375,47.2060546875,879.4773559570312,-793.4448852539062,23.54599952697754,-1008.3909912109375,16.774999618530273,2023-04-20T08:29:44.155098
4121.06103515625,82.2060546875,1089.4774169921875,-723.4448852539062,22.875,-1007.842041015625,17.873001098632812,2023-04-20T08:29:44.175864
4121.06884765625,82.2060546875,1194.4774169921875,-688.4448852539062,22.264999389648438,-1008.8790283203125,17.750999450683594,2023-04-20T08:29:44.177897
4121.07666015625,-92.7939453125,1299.4774169921875,-583.4448852539062,21.410999298095703,-1009.2449951171875,17.385000228881836,2023-04-20T08:29:44.181499
4121.0849609375,-92.7939453125,1229.4774169921875,-443.4449157714844,19.15399932861328,-1008.1470336914062,15.677000045776367,2023-04-20T08:29:44.187637
4121.0927734375,-92.7939453125,1159.4774169921875,-408.4449157714844,18.30000114440918,-1009.6110229492188,16.89699935913086,2023-04-20T08:29:44.197837
4121.10107421875,12.206053733825684,949.4773559570312,-198.4449005126953,17.812000274658203,-1009.8550415039062,15.73799991607666,2023-04-20T08:29:44.204105
4121.10888671875,12.206053733825684,774.4773559570312,-23.444908142089844,16.104000091552734,-1010.6480102539062,17.26300048828125,2023-04-20T08:29:44.215843
4121.11669921875,-22.7939453125,634.4773559570312,46.555091857910156,16.836000442504883,-1010.2210083007812,16.409000396728516,2023-04-20T08:29:44.219930
4121.125,187.2060546875,459.47735595703125,291.5550842285156,17.019001007080078,-1010.343017578125,17.873001098632812,2023-04-20T08:29:44.229572
4121.1328125,152.2060546875,319.47735595703125,431.5550842285156,17.873001098632812,-1009.5499877929688,17.750999450683594,2023-04-20T08:29:44.237267
4121.140625,222.2060546875,144.47735595703125,501.5550842285156,17.9950008392334,-1009.1229858398438,17.079999923706055,2023-04-20T08:29:44.243378
4121.14892578125,117.2060546875,109.47735595703125,746.5551147460938,17.019001007080078,-1009.0010375976562,18.361000061035156,2023-04-20T08:29:44.253059
4121.15673828125,47.2060546875,74.47735595703125,746.5551147460938,17.323999404907227,-1009.4280395507812,19.031999588012695,2023-04-20T08:29:44.262455
4121.1650390625,12.206053733825684,4.477356910705566,781.5551147460938,16.165000915527344,-1008.7570190429688,18.666000366210938,2023-04-20T08:29:44.268455
4121.1728515625,-162.7939453125,4.477356910705566,676.5551147460938,17.385000228881836,-1008.8179931640625,17.873001098632812,2023-04-20T08:29:44.279969
4121.1806640625,-197.7939453125,74.47735595703125,711.5551147460938,20.069000244140625,-1008.6959838867188,17.93400001525879,2023-04-20T08:29:44.282969
4121.18896484375,-337.7939453125,214.47735595703125,606.5551147460938,20.19099998474121,-1005.0969848632812,17.690000534057617,2023-04-20T08:29:44.293425
4121.19677734375,-407.7939453125,319.47735595703125,501.5550842285156,19.703001022338867,-1003.3280029296875,19.031999588012695,2023-04-20T08:29:44.299529
4121.205078125,-477.7939453125,354.47735595703125,466.5550842285156,18.30000114440918,-1004.3040161132812,18.604999542236328,2023-04-20T08:29:44.312186
4121.212890625,-477.7939453125,389.47735595703125,186.5550994873047,19.21500015258789,-1009.3060302734375,19.15399932861328,2023-04-20T08:29:44.315186
4121.220703125,-197.7939453125,599.4773559570312,116.55509185791016,20.434999465942383,-1013.0880126953125,18.361000061035156,2023-04-20T08:29:44.326701
4121.22900390625,-92.7939453125,669.4773559570312,221.5550994873047,21.5939998626709,-1011.8679809570312,18.361000061035156,2023-04-20T08:29:44.331701
4121.23681640625,117.2060546875,704.4773559570312,221.5550994873047,21.22800064086914,-1008.2689819335938,17.628999710083008,2023-04-20T08:29:44.344511
4121.24462890625,-57.7939453125,844.4773559570312,256.5550842285156,20.679000854492188,-1005.9509887695312,18.17799949645996,2023-04-20T08:29:44.346512
4121.2529296875,-162.7939453125,949.4773559570312,186.5550994873047,20.98400115966797,-1007.6589965820312,17.079999923706055,2023-04-20T08:29:44.355425
4121.2607421875,-407.7939453125,1194.4774169921875,396.5550842285156,19.763999938964844,-1011.4410400390625,16.714000701904297,2023-04-20T08:29:44.362864
4121.26904296875,-442.7939453125,1194.4774169921875,606.5551147460938,16.89699935913086,-1013.697998046875,16.22599983215332,2023-04-20T08:29:44.370909
4121.27685546875,-302.7939453125,1229.4774169921875,676.5551147460938,15.982000350952148,-1014.3690185546875,15.982000350952148,2023-04-20T08:29:44.378909
